onset	duration	RT_response	RT_visibility	correct	correctAns	labels	options	paths	probe_frame	response	subcategory	targets	time_coor	trials	visibility	volume_interest
0.0	0.85	0.0	0.0	0.0	0.0	n/a	n/a	n/a	0.0	0.0	n/a	n/a	0.0	0.0	n/a	0
0.85	0.85	0.0	0.0	0.0	0.0	n/a	n/a	n/a	0.0	0.0	n/a	n/a	0.85	0.0	n/a	0
1.7	0.85	0.6703051328659058	1.0503010749816897	1.0	1.0	mill	'nV_V'	mill_3.jpg	5.0	1.0	Buildings	Nonliving_Things	1.7	1.0	conscious	0
2.55	0.85	0.6703051328659058	1.0503010749816897	1.0	1.0	mill	'nV_V'	mill_3.jpg	5.0	1.0	Buildings	Nonliving_Things	2.55	1.0	conscious	0
3.4	0.85	0.6703051328659058	1.0503010749816897	1.0	1.0	mill	'nV_V'	mill_3.jpg	5.0	1.0	Buildings	Nonliving_Things	3.4	1.0	conscious	0
4.25	0.85	0.6703051328659058	1.0503010749816897	1.0	1.0	mill	'nV_V'	mill_3.jpg	5.0	1.0	Buildings	Nonliving_Things	4.25	1.0	conscious	0
5.1	0.85	0.6703051328659058	1.0503010749816897	1.0	1.0	mill	'nV_V'	mill_3.jpg	5.0	1.0	Buildings	Nonliving_Things	5.1	1.0	conscious	0
5.95	0.85	0.6703051328659058	1.0503010749816897	1.0	1.0	mill	'nV_V'	mill_3.jpg	5.0	1.0	Buildings	Nonliving_Things	5.95	1.0	conscious	0
6.8	0.85	0.6703051328659058	1.0503010749816897	1.0	1.0	mill	'nV_V'	mill_3.jpg	5.0	1.0	Buildings	Nonliving_Things	6.8	1.0	conscious	0
7.649999999999999	0.85	0.6703051328659058	1.0503010749816897	1.0	1.0	mill	'nV_V'	mill_3.jpg	5.0	1.0	Buildings	Nonliving_Things	7.649999999999999	1.0	conscious	1
8.5	0.85	0.6703051328659058	1.0503010749816897	1.0	1.0	mill	'nV_V'	mill_3.jpg	5.0	1.0	Buildings	Nonliving_Things	8.5	1.0	conscious	1
9.35	0.85	0.6703051328659058	1.0503010749816897	1.0	1.0	mill	'nV_V'	mill_3.jpg	5.0	1.0	Buildings	Nonliving_Things	9.35	1.0	conscious	1
10.2	0.85	0.6703051328659058	1.0503010749816897	1.0	1.0	mill	'nV_V'	mill_3.jpg	5.0	1.0	Buildings	Nonliving_Things	10.2	1.0	conscious	0
11.05	0.85	0.6703051328659058	1.0503010749816897	1.0	1.0	mill	'nV_V'	mill_3.jpg	5.0	1.0	Buildings	Nonliving_Things	11.05	1.0	conscious	0
11.9	0.85	0.6703051328659058	1.0503010749816897	1.0	1.0	mill	'nV_V'	mill_3.jpg	5.0	1.0	Buildings	Nonliving_Things	11.9	1.0	conscious	0
12.75	0.85	0.6703051328659058	1.0503010749816897	1.0	1.0	mill	'nV_V'	mill_3.jpg	5.0	1.0	Buildings	Nonliving_Things	12.75	1.0	conscious	0
13.6	0.85	0.6703051328659058	1.0503010749816897	1.0	1.0	mill	'nV_V'	mill_3.jpg	5.0	1.0	Buildings	Nonliving_Things	13.6	1.0	conscious	0
14.45	0.85	0.6703051328659058	1.0503010749816897	1.0	1.0	mill	'nV_V'	mill_3.jpg	5.0	1.0	Buildings	Nonliving_Things	14.45	1.0	conscious	0
15.3	0.85	0.6703051328659058	1.0503010749816897	1.0	1.0	mill	'nV_V'	mill_3.jpg	5.0	1.0	Buildings	Nonliving_Things	15.3	1.0	conscious	0
16.15	0.85	0.6103051900863647	0.8002704381942749	1.0	1.0	granary	'nV_V'	granary_19.jpg	3.0	1.0	Buildings	Nonliving_Things	16.15	2.0	conscious	0
17.0	0.85	0.6103051900863647	0.8002704381942749	1.0	1.0	granary	'nV_V'	granary_19.jpg	3.0	1.0	Buildings	Nonliving_Things	17.0	2.0	conscious	0
17.849999999999998	0.85	0.6103051900863647	0.8002704381942749	1.0	1.0	granary	'nV_V'	granary_19.jpg	3.0	1.0	Buildings	Nonliving_Things	17.849999999999998	2.0	conscious	0
18.7	0.85	0.6103051900863647	0.8002704381942749	1.0	1.0	granary	'nV_V'	granary_19.jpg	3.0	1.0	Buildings	Nonliving_Things	18.7	2.0	conscious	0
19.55	0.85	0.6103051900863647	0.8002704381942749	1.0	1.0	granary	'nV_V'	granary_19.jpg	3.0	1.0	Buildings	Nonliving_Things	19.55	2.0	conscious	0
20.4	0.85	0.6103051900863647	0.8002704381942749	1.0	1.0	granary	'nV_V'	granary_19.jpg	3.0	1.0	Buildings	Nonliving_Things	20.4	2.0	conscious	0
21.25	0.85	0.6103051900863647	0.8002704381942749	1.0	1.0	granary	'nV_V'	granary_19.jpg	3.0	1.0	Buildings	Nonliving_Things	21.25	2.0	conscious	1
22.1	0.85	0.6103051900863647	0.8002704381942749	1.0	1.0	granary	'nV_V'	granary_19.jpg	3.0	1.0	Buildings	Nonliving_Things	22.1	2.0	conscious	1
22.95	0.85	0.6103051900863647	0.8002704381942749	1.0	1.0	granary	'nV_V'	granary_19.jpg	3.0	1.0	Buildings	Nonliving_Things	22.95	2.0	conscious	1
23.8	0.85	0.6103051900863647	0.8002704381942749	1.0	1.0	granary	'nV_V'	granary_19.jpg	3.0	1.0	Buildings	Nonliving_Things	23.8	2.0	conscious	1
24.65	0.85	0.6103051900863647	0.8002704381942749	1.0	1.0	granary	'nV_V'	granary_19.jpg	3.0	1.0	Buildings	Nonliving_Things	24.65	2.0	conscious	0
25.5	0.85	0.6103051900863647	0.8002704381942749	1.0	1.0	granary	'nV_V'	granary_19.jpg	3.0	1.0	Buildings	Nonliving_Things	25.5	2.0	conscious	0
26.35	0.85	0.6103051900863647	0.8002704381942749	1.0	1.0	granary	'nV_V'	granary_19.jpg	3.0	1.0	Buildings	Nonliving_Things	26.35	2.0	conscious	0
27.2	0.85	0.6103051900863647	0.8002704381942749	1.0	1.0	granary	'nV_V'	granary_19.jpg	3.0	1.0	Buildings	Nonliving_Things	27.2	2.0	conscious	0
28.05	0.85	0.6103051900863647	0.8002704381942749	1.0	1.0	granary	'nV_V'	granary_19.jpg	3.0	1.0	Buildings	Nonliving_Things	28.05	2.0	conscious	0
28.9	0.85	1.0502909421920776	0.4702597558498383	1.0	2.0	cup	'V_nV'	cup_3.jpg	1.0	2.0	Kitchen_Uten	Nonliving_Things	28.9	3.0	unconscious	0
29.75	0.85	1.0502909421920776	0.4702597558498383	1.0	2.0	cup	'V_nV'	cup_3.jpg	1.0	2.0	Kitchen_Uten	Nonliving_Things	29.75	3.0	unconscious	0
30.6	0.85	1.0502909421920776	0.4702597558498383	1.0	2.0	cup	'V_nV'	cup_3.jpg	1.0	2.0	Kitchen_Uten	Nonliving_Things	30.6	3.0	unconscious	0
31.45	0.85	1.0502909421920776	0.4702597558498383	1.0	2.0	cup	'V_nV'	cup_3.jpg	1.0	2.0	Kitchen_Uten	Nonliving_Things	31.45	3.0	unconscious	0
32.3	0.85	1.0502909421920776	0.4702597558498383	1.0	2.0	cup	'V_nV'	cup_3.jpg	1.0	2.0	Kitchen_Uten	Nonliving_Things	32.3	3.0	unconscious	0
33.15	0.85	1.0502909421920776	0.4702597558498383	1.0	2.0	cup	'V_nV'	cup_3.jpg	1.0	2.0	Kitchen_Uten	Nonliving_Things	33.15	3.0	unconscious	0
34.0	0.85	1.0502909421920776	0.4702597558498383	1.0	2.0	cup	'V_nV'	cup_3.jpg	1.0	2.0	Kitchen_Uten	Nonliving_Things	34.0	3.0	unconscious	1
34.85	0.85	1.0502909421920776	0.4702597558498383	1.0	2.0	cup	'V_nV'	cup_3.jpg	1.0	2.0	Kitchen_Uten	Nonliving_Things	34.85	3.0	unconscious	1
35.7	0.85	1.0502909421920776	0.4702597558498383	1.0	2.0	cup	'V_nV'	cup_3.jpg	1.0	2.0	Kitchen_Uten	Nonliving_Things	35.7	3.0	unconscious	1
36.55	0.85	1.0502909421920776	0.4702597558498383	1.0	2.0	cup	'V_nV'	cup_3.jpg	1.0	2.0	Kitchen_Uten	Nonliving_Things	36.55	3.0	unconscious	1
37.4	0.85	1.0502909421920776	0.4702597558498383	1.0	2.0	cup	'V_nV'	cup_3.jpg	1.0	2.0	Kitchen_Uten	Nonliving_Things	37.4	3.0	unconscious	0
38.25	0.85	1.0502909421920776	0.4702597558498383	1.0	2.0	cup	'V_nV'	cup_3.jpg	1.0	2.0	Kitchen_Uten	Nonliving_Things	38.25	3.0	unconscious	0
39.1	0.85	1.0502909421920776	0.4702597558498383	1.0	2.0	cup	'V_nV'	cup_3.jpg	1.0	2.0	Kitchen_Uten	Nonliving_Things	39.1	3.0	unconscious	0
39.95	0.85	1.0502909421920776	0.4702597558498383	1.0	2.0	cup	'V_nV'	cup_3.jpg	1.0	2.0	Kitchen_Uten	Nonliving_Things	39.95	3.0	unconscious	0
40.8	0.85	1.0502909421920776	0.4702597558498383	1.0	2.0	cup	'V_nV'	cup_3.jpg	1.0	2.0	Kitchen_Uten	Nonliving_Things	40.8	3.0	unconscious	0
41.65	0.85	1.0502909421920776	0.4702597558498383	1.0	2.0	cup	'V_nV'	cup_3.jpg	1.0	2.0	Kitchen_Uten	Nonliving_Things	41.65	3.0	unconscious	0
42.5	0.85	0.5902870893478394	0.3202994763851166	1.0	1.0	fondue	'nV_V'	fondue_4.jpg	4.0	1.0	Kitchen_Uten	Nonliving_Things	42.5	4.0	conscious	0
43.35	0.85	0.5902870893478394	0.3202994763851166	1.0	1.0	fondue	'nV_V'	fondue_4.jpg	4.0	1.0	Kitchen_Uten	Nonliving_Things	43.35	4.0	conscious	0
44.2	0.85	0.5902870893478394	0.3202994763851166	1.0	1.0	fondue	'nV_V'	fondue_4.jpg	4.0	1.0	Kitchen_Uten	Nonliving_Things	44.2	4.0	conscious	0
45.05	0.85	0.5902870893478394	0.3202994763851166	1.0	1.0	fondue	'nV_V'	fondue_4.jpg	4.0	1.0	Kitchen_Uten	Nonliving_Things	45.05	4.0	conscious	0
45.9	0.85	0.5902870893478394	0.3202994763851166	1.0	1.0	fondue	'nV_V'	fondue_4.jpg	4.0	1.0	Kitchen_Uten	Nonliving_Things	45.9	4.0	conscious	0
46.75	0.85	0.5902870893478394	0.3202994763851166	1.0	1.0	fondue	'nV_V'	fondue_4.jpg	4.0	1.0	Kitchen_Uten	Nonliving_Things	46.75	4.0	conscious	0
47.6	0.85	0.5902870893478394	0.3202994763851166	1.0	1.0	fondue	'nV_V'	fondue_4.jpg	4.0	1.0	Kitchen_Uten	Nonliving_Things	47.6	4.0	conscious	0
48.45	0.85	0.5902870893478394	0.3202994763851166	1.0	1.0	fondue	'nV_V'	fondue_4.jpg	4.0	1.0	Kitchen_Uten	Nonliving_Things	48.45	4.0	conscious	1
49.3	0.85	0.5902870893478394	0.3202994763851166	1.0	1.0	fondue	'nV_V'	fondue_4.jpg	4.0	1.0	Kitchen_Uten	Nonliving_Things	49.3	4.0	conscious	1
50.15	0.85	0.5902870893478394	0.3202994763851166	1.0	1.0	fondue	'nV_V'	fondue_4.jpg	4.0	1.0	Kitchen_Uten	Nonliving_Things	50.15	4.0	conscious	1
51.0	0.85	0.5902870893478394	0.3202994763851166	1.0	1.0	fondue	'nV_V'	fondue_4.jpg	4.0	1.0	Kitchen_Uten	Nonliving_Things	51.0	4.0	conscious	0
51.85	0.85	0.5902870893478394	0.3202994763851166	1.0	1.0	fondue	'nV_V'	fondue_4.jpg	4.0	1.0	Kitchen_Uten	Nonliving_Things	51.85	4.0	conscious	0
52.7	0.85	0.5902870893478394	0.3202994763851166	1.0	1.0	fondue	'nV_V'	fondue_4.jpg	4.0	1.0	Kitchen_Uten	Nonliving_Things	52.7	4.0	conscious	0
53.55	0.85	0.5902870893478394	0.3202994763851166	1.0	1.0	fondue	'nV_V'	fondue_4.jpg	4.0	1.0	Kitchen_Uten	Nonliving_Things	53.55	4.0	conscious	0
54.4	0.85	0.5902870893478394	0.3202994763851166	1.0	1.0	fondue	'nV_V'	fondue_4.jpg	4.0	1.0	Kitchen_Uten	Nonliving_Things	54.4	4.0	conscious	0
55.25	0.85	0.5503020882606506	0.540194571018219	1.0	1.0	drum	'nV_V'	drum_15.jpg	2.0	1.0	Musical_Inst	Nonliving_Things	55.25	5.0	conscious	0
56.1	0.85	0.5503020882606506	0.540194571018219	1.0	1.0	drum	'nV_V'	drum_15.jpg	2.0	1.0	Musical_Inst	Nonliving_Things	56.1	5.0	conscious	0
56.95	0.85	0.5503020882606506	0.540194571018219	1.0	1.0	drum	'nV_V'	drum_15.jpg	2.0	1.0	Musical_Inst	Nonliving_Things	56.95	5.0	conscious	0
57.8	0.85	0.5503020882606506	0.540194571018219	1.0	1.0	drum	'nV_V'	drum_15.jpg	2.0	1.0	Musical_Inst	Nonliving_Things	57.8	5.0	conscious	0
58.65	0.85	0.5503020882606506	0.540194571018219	1.0	1.0	drum	'nV_V'	drum_15.jpg	2.0	1.0	Musical_Inst	Nonliving_Things	58.65	5.0	conscious	0
59.5	0.85	0.5503020882606506	0.540194571018219	1.0	1.0	drum	'nV_V'	drum_15.jpg	2.0	1.0	Musical_Inst	Nonliving_Things	59.5	5.0	conscious	0
60.35	0.85	0.5503020882606506	0.540194571018219	1.0	1.0	drum	'nV_V'	drum_15.jpg	2.0	1.0	Musical_Inst	Nonliving_Things	60.35	5.0	conscious	0
61.2	0.85	0.5503020882606506	0.540194571018219	1.0	1.0	drum	'nV_V'	drum_15.jpg	2.0	1.0	Musical_Inst	Nonliving_Things	61.2	5.0	conscious	1
62.05	0.85	0.5503020882606506	0.540194571018219	1.0	1.0	drum	'nV_V'	drum_15.jpg	2.0	1.0	Musical_Inst	Nonliving_Things	62.05	5.0	conscious	1
62.9	0.85	0.5503020882606506	0.540194571018219	1.0	1.0	drum	'nV_V'	drum_15.jpg	2.0	1.0	Musical_Inst	Nonliving_Things	62.9	5.0	conscious	1
63.75	0.85	0.5503020882606506	0.540194571018219	1.0	1.0	drum	'nV_V'	drum_15.jpg	2.0	1.0	Musical_Inst	Nonliving_Things	63.75	5.0	conscious	0
64.6	0.85	0.5503020882606506	0.540194571018219	1.0	1.0	drum	'nV_V'	drum_15.jpg	2.0	1.0	Musical_Inst	Nonliving_Things	64.6	5.0	conscious	0
65.45	0.85	0.5503020882606506	0.540194571018219	1.0	1.0	drum	'nV_V'	drum_15.jpg	2.0	1.0	Musical_Inst	Nonliving_Things	65.45	5.0	conscious	0
66.3	0.85	0.5503020882606506	0.540194571018219	1.0	1.0	drum	'nV_V'	drum_15.jpg	2.0	1.0	Musical_Inst	Nonliving_Things	66.3	5.0	conscious	0
67.14999999999999	0.85	0.5503020882606506	0.540194571018219	1.0	1.0	drum	'nV_V'	drum_15.jpg	2.0	1.0	Musical_Inst	Nonliving_Things	67.14999999999999	5.0	conscious	0
68.0	0.85	0.8802888989448547	0.3402583003044128	0.0	2.0	sperm-whale	'nV_V'	sperm-whale_24.jpg	1.0	1.0	Marine_creatures	Living_Things	68.0	6.0	unconscious	0
68.85	0.85	0.8802888989448547	0.3402583003044128	0.0	2.0	sperm-whale	'nV_V'	sperm-whale_24.jpg	1.0	1.0	Marine_creatures	Living_Things	68.85	6.0	unconscious	0
69.7	0.85	0.8802888989448547	0.3402583003044128	0.0	2.0	sperm-whale	'nV_V'	sperm-whale_24.jpg	1.0	1.0	Marine_creatures	Living_Things	69.7	6.0	unconscious	0
70.55	0.85	0.8802888989448547	0.3402583003044128	0.0	2.0	sperm-whale	'nV_V'	sperm-whale_24.jpg	1.0	1.0	Marine_creatures	Living_Things	70.55	6.0	unconscious	0
71.39999999999999	0.85	0.8802888989448547	0.3402583003044128	0.0	2.0	sperm-whale	'nV_V'	sperm-whale_24.jpg	1.0	1.0	Marine_creatures	Living_Things	71.39999999999999	6.0	unconscious	0
72.25	0.85	0.8802888989448547	0.3402583003044128	0.0	2.0	sperm-whale	'nV_V'	sperm-whale_24.jpg	1.0	1.0	Marine_creatures	Living_Things	72.25	6.0	unconscious	0
73.1	0.85	0.8802888989448547	0.3402583003044128	0.0	2.0	sperm-whale	'nV_V'	sperm-whale_24.jpg	1.0	1.0	Marine_creatures	Living_Things	73.1	6.0	unconscious	1
73.95	0.85	0.8802888989448547	0.3402583003044128	0.0	2.0	sperm-whale	'nV_V'	sperm-whale_24.jpg	1.0	1.0	Marine_creatures	Living_Things	73.95	6.0	unconscious	1
74.8	0.85	0.8802888989448547	0.3402583003044128	0.0	2.0	sperm-whale	'nV_V'	sperm-whale_24.jpg	1.0	1.0	Marine_creatures	Living_Things	74.8	6.0	unconscious	1
75.64999999999999	0.85	0.8802888989448547	0.3402583003044128	0.0	2.0	sperm-whale	'nV_V'	sperm-whale_24.jpg	1.0	1.0	Marine_creatures	Living_Things	75.64999999999999	6.0	unconscious	1
76.5	0.85	0.8802888989448547	0.3402583003044128	0.0	2.0	sperm-whale	'nV_V'	sperm-whale_24.jpg	1.0	1.0	Marine_creatures	Living_Things	76.5	6.0	unconscious	0
77.35	0.85	0.8802888989448547	0.3402583003044128	0.0	2.0	sperm-whale	'nV_V'	sperm-whale_24.jpg	1.0	1.0	Marine_creatures	Living_Things	77.35	6.0	unconscious	0
78.2	0.85	0.8802888989448547	0.3402583003044128	0.0	2.0	sperm-whale	'nV_V'	sperm-whale_24.jpg	1.0	1.0	Marine_creatures	Living_Things	78.2	6.0	unconscious	0
79.05	0.85	0.8802888989448547	0.3402583003044128	0.0	2.0	sperm-whale	'nV_V'	sperm-whale_24.jpg	1.0	1.0	Marine_creatures	Living_Things	79.05	6.0	unconscious	0
79.89999999999999	0.85	0.6701868772506714	0.4103087484836577	0.0	1.0	elephant	'V_nV'	elephant_12.jpg	3.0	2.0	Animals	Living_Things	79.89999999999999	7.0	unconscious	0
80.75	0.85	0.6701868772506714	0.4103087484836577	0.0	1.0	elephant	'V_nV'	elephant_12.jpg	3.0	2.0	Animals	Living_Things	80.75	7.0	unconscious	0
81.6	0.85	0.6701868772506714	0.4103087484836577	0.0	1.0	elephant	'V_nV'	elephant_12.jpg	3.0	2.0	Animals	Living_Things	81.6	7.0	unconscious	0
82.45	0.85	0.6701868772506714	0.4103087484836577	0.0	1.0	elephant	'V_nV'	elephant_12.jpg	3.0	2.0	Animals	Living_Things	82.45	7.0	unconscious	0
83.3	0.85	0.6701868772506714	0.4103087484836577	0.0	1.0	elephant	'V_nV'	elephant_12.jpg	3.0	2.0	Animals	Living_Things	83.3	7.0	unconscious	0
84.14999999999999	0.85	0.6701868772506714	0.4103087484836577	0.0	1.0	elephant	'V_nV'	elephant_12.jpg	3.0	2.0	Animals	Living_Things	84.14999999999999	7.0	unconscious	0
85.0	0.85	0.6701868772506714	0.4103087484836577	0.0	1.0	elephant	'V_nV'	elephant_12.jpg	3.0	2.0	Animals	Living_Things	85.0	7.0	unconscious	0
85.85	0.85	0.6701868772506714	0.4103087484836577	0.0	1.0	elephant	'V_nV'	elephant_12.jpg	3.0	2.0	Animals	Living_Things	85.85	7.0	unconscious	1
86.7	0.85	0.6701868772506714	0.4103087484836577	0.0	1.0	elephant	'V_nV'	elephant_12.jpg	3.0	2.0	Animals	Living_Things	86.7	7.0	unconscious	1
87.55	0.85	0.6701868772506714	0.4103087484836577	0.0	1.0	elephant	'V_nV'	elephant_12.jpg	3.0	2.0	Animals	Living_Things	87.55	7.0	unconscious	1
88.39999999999999	0.85	0.6701868772506714	0.4103087484836577	0.0	1.0	elephant	'V_nV'	elephant_12.jpg	3.0	2.0	Animals	Living_Things	88.39999999999999	7.0	unconscious	0
89.25	0.85	0.6701868772506714	0.4103087484836577	0.0	1.0	elephant	'V_nV'	elephant_12.jpg	3.0	2.0	Animals	Living_Things	89.25	7.0	unconscious	0
90.1	0.85	0.6701868772506714	0.4103087484836577	0.0	1.0	elephant	'V_nV'	elephant_12.jpg	3.0	2.0	Animals	Living_Things	90.1	7.0	unconscious	0
90.95	0.85	0.6701868772506714	0.4103087484836577	0.0	1.0	elephant	'V_nV'	elephant_12.jpg	3.0	2.0	Animals	Living_Things	90.95	7.0	unconscious	0
91.8	0.85	0.6701868772506714	0.4103087484836577	0.0	1.0	elephant	'V_nV'	elephant_12.jpg	3.0	2.0	Animals	Living_Things	91.8	7.0	unconscious	0
92.65	0.85	0.6701868772506714	0.4103087484836577	0.0	1.0	elephant	'V_nV'	elephant_12.jpg	3.0	2.0	Animals	Living_Things	92.65	7.0	unconscious	0
93.5	0.85	0.6701868772506714	0.4103087484836577	0.0	1.0	elephant	'V_nV'	elephant_12.jpg	3.0	2.0	Animals	Living_Things	93.5	7.0	unconscious	0
94.35	0.85	0.8403754830360413	1.3903555870056152	0.0	2.0	cat	'nV_V'	cat_8.jpg	4.0	1.0	Animals	Living_Things	94.35	8.0	glimpse	0
95.2	0.85	0.8403754830360413	1.3903555870056152	0.0	2.0	cat	'nV_V'	cat_8.jpg	4.0	1.0	Animals	Living_Things	95.2	8.0	glimpse	0
96.05	0.85	0.8403754830360413	1.3903555870056152	0.0	2.0	cat	'nV_V'	cat_8.jpg	4.0	1.0	Animals	Living_Things	96.05	8.0	glimpse	0
96.9	0.85	0.8403754830360413	1.3903555870056152	0.0	2.0	cat	'nV_V'	cat_8.jpg	4.0	1.0	Animals	Living_Things	96.9	8.0	glimpse	0
97.75	0.85	0.8403754830360413	1.3903555870056152	0.0	2.0	cat	'nV_V'	cat_8.jpg	4.0	1.0	Animals	Living_Things	97.75	8.0	glimpse	0
98.6	0.85	0.8403754830360413	1.3903555870056152	0.0	2.0	cat	'nV_V'	cat_8.jpg	4.0	1.0	Animals	Living_Things	98.6	8.0	glimpse	0
99.45	0.85	0.8403754830360413	1.3903555870056152	0.0	2.0	cat	'nV_V'	cat_8.jpg	4.0	1.0	Animals	Living_Things	99.45	8.0	glimpse	1
100.3	0.85	0.8403754830360413	1.3903555870056152	0.0	2.0	cat	'nV_V'	cat_8.jpg	4.0	1.0	Animals	Living_Things	100.3	8.0	glimpse	1
101.15	0.85	0.8403754830360413	1.3903555870056152	0.0	2.0	cat	'nV_V'	cat_8.jpg	4.0	1.0	Animals	Living_Things	101.15	8.0	glimpse	1
102.0	0.85	0.8403754830360413	1.3903555870056152	0.0	2.0	cat	'nV_V'	cat_8.jpg	4.0	1.0	Animals	Living_Things	102.0	8.0	glimpse	1
102.85	0.85	0.8403754830360413	1.3903555870056152	0.0	2.0	cat	'nV_V'	cat_8.jpg	4.0	1.0	Animals	Living_Things	102.85	8.0	glimpse	0
103.7	0.85	0.8403754830360413	1.3903555870056152	0.0	2.0	cat	'nV_V'	cat_8.jpg	4.0	1.0	Animals	Living_Things	103.7	8.0	glimpse	0
104.55	0.85	0.8403754830360413	1.3903555870056152	0.0	2.0	cat	'nV_V'	cat_8.jpg	4.0	1.0	Animals	Living_Things	104.55	8.0	glimpse	0
105.4	0.85	0.8403754830360413	1.3903555870056152	0.0	2.0	cat	'nV_V'	cat_8.jpg	4.0	1.0	Animals	Living_Things	105.4	8.0	glimpse	0
106.25	0.85	0.8403754830360413	1.3903555870056152	0.0	2.0	cat	'nV_V'	cat_8.jpg	4.0	1.0	Animals	Living_Things	106.25	8.0	glimpse	0
107.1	0.85	0.8403754830360413	1.3903555870056152	0.0	2.0	cat	'nV_V'	cat_8.jpg	4.0	1.0	Animals	Living_Things	107.1	8.0	glimpse	0
107.95	0.85	0.8403754830360413	1.3903555870056152	0.0	2.0	cat	'nV_V'	cat_8.jpg	4.0	1.0	Animals	Living_Things	107.95	8.0	glimpse	0
108.8	0.85	0.8403754830360413	1.3903555870056152	0.0	2.0	cat	'nV_V'	cat_8.jpg	4.0	1.0	Animals	Living_Things	108.8	8.0	glimpse	0
109.65	0.85	0.460321307182312	0.6603696942329407	1.0	2.0	house	'V_nV'	house_20.jpg	3.0	2.0	Buildings	Nonliving_Things	109.65	9.0	glimpse	0
110.5	0.85	0.460321307182312	0.6603696942329407	1.0	2.0	house	'V_nV'	house_20.jpg	3.0	2.0	Buildings	Nonliving_Things	110.5	9.0	glimpse	0
111.35	0.85	0.460321307182312	0.6603696942329407	1.0	2.0	house	'V_nV'	house_20.jpg	3.0	2.0	Buildings	Nonliving_Things	111.35	9.0	glimpse	0
112.2	0.85	0.460321307182312	0.6603696942329407	1.0	2.0	house	'V_nV'	house_20.jpg	3.0	2.0	Buildings	Nonliving_Things	112.2	9.0	glimpse	0
113.05	0.85	0.460321307182312	0.6603696942329407	1.0	2.0	house	'V_nV'	house_20.jpg	3.0	2.0	Buildings	Nonliving_Things	113.05	9.0	glimpse	0
113.9	0.85	0.460321307182312	0.6603696942329407	1.0	2.0	house	'V_nV'	house_20.jpg	3.0	2.0	Buildings	Nonliving_Things	113.9	9.0	glimpse	0
114.75	0.85	0.460321307182312	0.6603696942329407	1.0	2.0	house	'V_nV'	house_20.jpg	3.0	2.0	Buildings	Nonliving_Things	114.75	9.0	glimpse	1
115.6	0.85	0.460321307182312	0.6603696942329407	1.0	2.0	house	'V_nV'	house_20.jpg	3.0	2.0	Buildings	Nonliving_Things	115.6	9.0	glimpse	1
116.45	0.85	0.460321307182312	0.6603696942329407	1.0	2.0	house	'V_nV'	house_20.jpg	3.0	2.0	Buildings	Nonliving_Things	116.45	9.0	glimpse	1
117.3	0.85	0.460321307182312	0.6603696942329407	1.0	2.0	house	'V_nV'	house_20.jpg	3.0	2.0	Buildings	Nonliving_Things	117.3	9.0	glimpse	1
118.15	0.85	0.460321307182312	0.6603696942329407	1.0	2.0	house	'V_nV'	house_20.jpg	3.0	2.0	Buildings	Nonliving_Things	118.15	9.0	glimpse	0
119.0	0.85	0.460321307182312	0.6603696942329407	1.0	2.0	house	'V_nV'	house_20.jpg	3.0	2.0	Buildings	Nonliving_Things	119.0	9.0	glimpse	0
119.85	0.85	0.460321307182312	0.6603696942329407	1.0	2.0	house	'V_nV'	house_20.jpg	3.0	2.0	Buildings	Nonliving_Things	119.85	9.0	glimpse	0
120.7	0.85	0.460321307182312	0.6603696942329407	1.0	2.0	house	'V_nV'	house_20.jpg	3.0	2.0	Buildings	Nonliving_Things	120.7	9.0	glimpse	0
121.55	0.85	0.460321307182312	0.6603696942329407	1.0	2.0	house	'V_nV'	house_20.jpg	3.0	2.0	Buildings	Nonliving_Things	121.55	9.0	glimpse	0
122.4	0.85	0.460321307182312	0.6603696942329407	1.0	2.0	house	'V_nV'	house_20.jpg	3.0	2.0	Buildings	Nonliving_Things	122.4	9.0	glimpse	0
123.25	0.85	0.5503715872764587	0.7703710198402405	1.0	2.0	toucan	'nV_V'	toucan_23.jpg	2.0	2.0	Birds	Living_Things	123.25	10.0	unconscious	0
124.1	0.85	0.5503715872764587	0.7703710198402405	1.0	2.0	toucan	'nV_V'	toucan_23.jpg	2.0	2.0	Birds	Living_Things	124.1	10.0	unconscious	0
124.95	0.85	0.5503715872764587	0.7703710198402405	1.0	2.0	toucan	'nV_V'	toucan_23.jpg	2.0	2.0	Birds	Living_Things	124.95	10.0	unconscious	0
125.8	0.85	0.5503715872764587	0.7703710198402405	1.0	2.0	toucan	'nV_V'	toucan_23.jpg	2.0	2.0	Birds	Living_Things	125.8	10.0	unconscious	0
126.65	0.85	0.5503715872764587	0.7703710198402405	1.0	2.0	toucan	'nV_V'	toucan_23.jpg	2.0	2.0	Birds	Living_Things	126.65	10.0	unconscious	0
127.5	0.85	0.5503715872764587	0.7703710198402405	1.0	2.0	toucan	'nV_V'	toucan_23.jpg	2.0	2.0	Birds	Living_Things	127.5	10.0	unconscious	0
128.35	0.85	0.5503715872764587	0.7703710198402405	1.0	2.0	toucan	'nV_V'	toucan_23.jpg	2.0	2.0	Birds	Living_Things	128.35	10.0	unconscious	0
129.2	0.85	0.5503715872764587	0.7703710198402405	1.0	2.0	toucan	'nV_V'	toucan_23.jpg	2.0	2.0	Birds	Living_Things	129.2	10.0	unconscious	1
130.04999999999998	0.85	0.5503715872764587	0.7703710198402405	1.0	2.0	toucan	'nV_V'	toucan_23.jpg	2.0	2.0	Birds	Living_Things	130.04999999999998	10.0	unconscious	1
130.9	0.85	0.5503715872764587	0.7703710198402405	1.0	2.0	toucan	'nV_V'	toucan_23.jpg	2.0	2.0	Birds	Living_Things	130.9	10.0	unconscious	1
131.75	0.85	0.5503715872764587	0.7703710198402405	1.0	2.0	toucan	'nV_V'	toucan_23.jpg	2.0	2.0	Birds	Living_Things	131.75	10.0	unconscious	0
132.6	0.85	0.5503715872764587	0.7703710198402405	1.0	2.0	toucan	'nV_V'	toucan_23.jpg	2.0	2.0	Birds	Living_Things	132.6	10.0	unconscious	0
133.45	0.85	0.5503715872764587	0.7703710198402405	1.0	2.0	toucan	'nV_V'	toucan_23.jpg	2.0	2.0	Birds	Living_Things	133.45	10.0	unconscious	0
134.29999999999998	0.85	0.5503715872764587	0.7703710198402405	1.0	2.0	toucan	'nV_V'	toucan_23.jpg	2.0	2.0	Birds	Living_Things	134.29999999999998	10.0	unconscious	0
135.15	0.85	0.5503715872764587	0.7703710198402405	1.0	2.0	toucan	'nV_V'	toucan_23.jpg	2.0	2.0	Birds	Living_Things	135.15	10.0	unconscious	0
136.0	0.85	0.6603736877441406	1.0001009702682495	1.0	1.0	sparrow	'V_nV'	sparrow_21.jpg	5.0	1.0	Birds	Living_Things	136.0	11.0	conscious	0
136.85	0.85	0.6603736877441406	1.0001009702682495	1.0	1.0	sparrow	'V_nV'	sparrow_21.jpg	5.0	1.0	Birds	Living_Things	136.85	11.0	conscious	0
137.7	0.85	0.6603736877441406	1.0001009702682495	1.0	1.0	sparrow	'V_nV'	sparrow_21.jpg	5.0	1.0	Birds	Living_Things	137.7	11.0	conscious	0
138.54999999999998	0.85	0.6603736877441406	1.0001009702682495	1.0	1.0	sparrow	'V_nV'	sparrow_21.jpg	5.0	1.0	Birds	Living_Things	138.54999999999998	11.0	conscious	0
139.4	0.85	0.6603736877441406	1.0001009702682495	1.0	1.0	sparrow	'V_nV'	sparrow_21.jpg	5.0	1.0	Birds	Living_Things	139.4	11.0	conscious	0
140.25	0.85	0.6603736877441406	1.0001009702682495	1.0	1.0	sparrow	'V_nV'	sparrow_21.jpg	5.0	1.0	Birds	Living_Things	140.25	11.0	conscious	0
141.1	0.85	0.6603736877441406	1.0001009702682495	1.0	1.0	sparrow	'V_nV'	sparrow_21.jpg	5.0	1.0	Birds	Living_Things	141.1	11.0	conscious	1
141.95	0.85	0.6603736877441406	1.0001009702682495	1.0	1.0	sparrow	'V_nV'	sparrow_21.jpg	5.0	1.0	Birds	Living_Things	141.95	11.0	conscious	1
142.79999999999998	0.85	0.6603736877441406	1.0001009702682495	1.0	1.0	sparrow	'V_nV'	sparrow_21.jpg	5.0	1.0	Birds	Living_Things	142.79999999999998	11.0	conscious	1
143.65	0.85	0.6603736877441406	1.0001009702682495	1.0	1.0	sparrow	'V_nV'	sparrow_21.jpg	5.0	1.0	Birds	Living_Things	143.65	11.0	conscious	1
144.5	0.85	0.6603736877441406	1.0001009702682495	1.0	1.0	sparrow	'V_nV'	sparrow_21.jpg	5.0	1.0	Birds	Living_Things	144.5	11.0	conscious	0
145.35	0.85	0.6603736877441406	1.0001009702682495	1.0	1.0	sparrow	'V_nV'	sparrow_21.jpg	5.0	1.0	Birds	Living_Things	145.35	11.0	conscious	0
146.2	0.85	0.6603736877441406	1.0001009702682495	1.0	1.0	sparrow	'V_nV'	sparrow_21.jpg	5.0	1.0	Birds	Living_Things	146.2	11.0	conscious	0
147.04999999999998	0.85	0.6603736877441406	1.0001009702682495	1.0	1.0	sparrow	'V_nV'	sparrow_21.jpg	5.0	1.0	Birds	Living_Things	147.04999999999998	11.0	conscious	0
147.9	0.85	0.6603736877441406	1.0001009702682495	1.0	1.0	sparrow	'V_nV'	sparrow_21.jpg	5.0	1.0	Birds	Living_Things	147.9	11.0	conscious	0
148.75	0.85	0.6603736877441406	1.0001009702682495	1.0	1.0	sparrow	'V_nV'	sparrow_21.jpg	5.0	1.0	Birds	Living_Things	148.75	11.0	conscious	0
149.6	0.85	0.6603736877441406	1.0001009702682495	1.0	1.0	sparrow	'V_nV'	sparrow_21.jpg	5.0	1.0	Birds	Living_Things	149.6	11.0	conscious	0
150.45	0.85	0.6602503657341003	0.1803035587072372	1.0	2.0	guitar	'V_nV'	guitar_10.jpg	3.0	2.0	Musical_Inst	Nonliving_Things	150.45	12.0	conscious	0
151.29999999999998	0.85	0.6602503657341003	0.1803035587072372	1.0	2.0	guitar	'V_nV'	guitar_10.jpg	3.0	2.0	Musical_Inst	Nonliving_Things	151.29999999999998	12.0	conscious	0
152.15	0.85	0.6602503657341003	0.1803035587072372	1.0	2.0	guitar	'V_nV'	guitar_10.jpg	3.0	2.0	Musical_Inst	Nonliving_Things	152.15	12.0	conscious	0
153.0	0.85	0.6602503657341003	0.1803035587072372	1.0	2.0	guitar	'V_nV'	guitar_10.jpg	3.0	2.0	Musical_Inst	Nonliving_Things	153.0	12.0	conscious	0
153.85	0.85	0.6602503657341003	0.1803035587072372	1.0	2.0	guitar	'V_nV'	guitar_10.jpg	3.0	2.0	Musical_Inst	Nonliving_Things	153.85	12.0	conscious	0
154.7	0.85	0.6602503657341003	0.1803035587072372	1.0	2.0	guitar	'V_nV'	guitar_10.jpg	3.0	2.0	Musical_Inst	Nonliving_Things	154.7	12.0	conscious	0
155.54999999999998	0.85	0.6602503657341003	0.1803035587072372	1.0	2.0	guitar	'V_nV'	guitar_10.jpg	3.0	2.0	Musical_Inst	Nonliving_Things	155.54999999999998	12.0	conscious	1
156.4	0.85	0.6602503657341003	0.1803035587072372	1.0	2.0	guitar	'V_nV'	guitar_10.jpg	3.0	2.0	Musical_Inst	Nonliving_Things	156.4	12.0	conscious	1
157.25	0.85	0.6602503657341003	0.1803035587072372	1.0	2.0	guitar	'V_nV'	guitar_10.jpg	3.0	2.0	Musical_Inst	Nonliving_Things	157.25	12.0	conscious	1
158.1	0.85	0.6602503657341003	0.1803035587072372	1.0	2.0	guitar	'V_nV'	guitar_10.jpg	3.0	2.0	Musical_Inst	Nonliving_Things	158.1	12.0	conscious	1
158.95	0.85	0.6602503657341003	0.1803035587072372	1.0	2.0	guitar	'V_nV'	guitar_10.jpg	3.0	2.0	Musical_Inst	Nonliving_Things	158.95	12.0	conscious	0
159.79999999999998	0.85	0.6602503657341003	0.1803035587072372	1.0	2.0	guitar	'V_nV'	guitar_10.jpg	3.0	2.0	Musical_Inst	Nonliving_Things	159.79999999999998	12.0	conscious	0
160.65	0.85	0.6602503657341003	0.1803035587072372	1.0	2.0	guitar	'V_nV'	guitar_10.jpg	3.0	2.0	Musical_Inst	Nonliving_Things	160.65	12.0	conscious	0
161.5	0.85	0.6602503657341003	0.1803035587072372	1.0	2.0	guitar	'V_nV'	guitar_10.jpg	3.0	2.0	Musical_Inst	Nonliving_Things	161.5	12.0	conscious	0
162.35	0.85	0.6602503657341003	0.1803035587072372	1.0	2.0	guitar	'V_nV'	guitar_10.jpg	3.0	2.0	Musical_Inst	Nonliving_Things	162.35	12.0	conscious	0
163.2	0.85	0.720266580581665	0.3203314244747162	1.0	2.0	dragonfly	'nV_V'	dragonfly_26.jpg	1.0	2.0	Insects	Living_Things	163.2	13.0	unconscious	0
164.04999999999998	0.85	0.720266580581665	0.3203314244747162	1.0	2.0	dragonfly	'nV_V'	dragonfly_26.jpg	1.0	2.0	Insects	Living_Things	164.04999999999998	13.0	unconscious	0
164.9	0.85	0.720266580581665	0.3203314244747162	1.0	2.0	dragonfly	'nV_V'	dragonfly_26.jpg	1.0	2.0	Insects	Living_Things	164.9	13.0	unconscious	0
165.75	0.85	0.720266580581665	0.3203314244747162	1.0	2.0	dragonfly	'nV_V'	dragonfly_26.jpg	1.0	2.0	Insects	Living_Things	165.75	13.0	unconscious	0
166.6	0.85	0.720266580581665	0.3203314244747162	1.0	2.0	dragonfly	'nV_V'	dragonfly_26.jpg	1.0	2.0	Insects	Living_Things	166.6	13.0	unconscious	0
167.45	0.85	0.720266580581665	0.3203314244747162	1.0	2.0	dragonfly	'nV_V'	dragonfly_26.jpg	1.0	2.0	Insects	Living_Things	167.45	13.0	unconscious	0
168.29999999999998	0.85	0.720266580581665	0.3203314244747162	1.0	2.0	dragonfly	'nV_V'	dragonfly_26.jpg	1.0	2.0	Insects	Living_Things	168.29999999999998	13.0	unconscious	1
169.15	0.85	0.720266580581665	0.3203314244747162	1.0	2.0	dragonfly	'nV_V'	dragonfly_26.jpg	1.0	2.0	Insects	Living_Things	169.15	13.0	unconscious	1
170.0	0.85	0.720266580581665	0.3203314244747162	1.0	2.0	dragonfly	'nV_V'	dragonfly_26.jpg	1.0	2.0	Insects	Living_Things	170.0	13.0	unconscious	1
170.85	0.85	0.720266580581665	0.3203314244747162	1.0	2.0	dragonfly	'nV_V'	dragonfly_26.jpg	1.0	2.0	Insects	Living_Things	170.85	13.0	unconscious	1
171.7	0.85	0.720266580581665	0.3203314244747162	1.0	2.0	dragonfly	'nV_V'	dragonfly_26.jpg	1.0	2.0	Insects	Living_Things	171.7	13.0	unconscious	0
172.54999999999998	0.85	0.720266580581665	0.3203314244747162	1.0	2.0	dragonfly	'nV_V'	dragonfly_26.jpg	1.0	2.0	Insects	Living_Things	172.54999999999998	13.0	unconscious	0
173.4	0.85	0.720266580581665	0.3203314244747162	1.0	2.0	dragonfly	'nV_V'	dragonfly_26.jpg	1.0	2.0	Insects	Living_Things	173.4	13.0	unconscious	0
174.25	0.85	0.720266580581665	0.3203314244747162	1.0	2.0	dragonfly	'nV_V'	dragonfly_26.jpg	1.0	2.0	Insects	Living_Things	174.25	13.0	unconscious	0
175.1	0.85	0.720266580581665	0.3203314244747162	1.0	2.0	dragonfly	'nV_V'	dragonfly_26.jpg	1.0	2.0	Insects	Living_Things	175.1	13.0	unconscious	0
175.95	0.85	0.5602865815162659	0.290304034948349	1.0	2.0	hammer	'V_nV'	hammer_14.jpg	2.0	2.0	Tools	Nonliving_Things	175.95	14.0	unconscious	0
176.79999999999998	0.85	0.5602865815162659	0.290304034948349	1.0	2.0	hammer	'V_nV'	hammer_14.jpg	2.0	2.0	Tools	Nonliving_Things	176.79999999999998	14.0	unconscious	0
177.65	0.85	0.5602865815162659	0.290304034948349	1.0	2.0	hammer	'V_nV'	hammer_14.jpg	2.0	2.0	Tools	Nonliving_Things	177.65	14.0	unconscious	0
178.5	0.85	0.5602865815162659	0.290304034948349	1.0	2.0	hammer	'V_nV'	hammer_14.jpg	2.0	2.0	Tools	Nonliving_Things	178.5	14.0	unconscious	0
179.35	0.85	0.5602865815162659	0.290304034948349	1.0	2.0	hammer	'V_nV'	hammer_14.jpg	2.0	2.0	Tools	Nonliving_Things	179.35	14.0	unconscious	0
180.2	0.85	0.5602865815162659	0.290304034948349	1.0	2.0	hammer	'V_nV'	hammer_14.jpg	2.0	2.0	Tools	Nonliving_Things	180.2	14.0	unconscious	0
181.05	0.85	0.5602865815162659	0.290304034948349	1.0	2.0	hammer	'V_nV'	hammer_14.jpg	2.0	2.0	Tools	Nonliving_Things	181.05	14.0	unconscious	1
181.9	0.85	0.5602865815162659	0.290304034948349	1.0	2.0	hammer	'V_nV'	hammer_14.jpg	2.0	2.0	Tools	Nonliving_Things	181.9	14.0	unconscious	1
182.75	0.85	0.5602865815162659	0.290304034948349	1.0	2.0	hammer	'V_nV'	hammer_14.jpg	2.0	2.0	Tools	Nonliving_Things	182.75	14.0	unconscious	1
183.6	0.85	0.5602865815162659	0.290304034948349	1.0	2.0	hammer	'V_nV'	hammer_14.jpg	2.0	2.0	Tools	Nonliving_Things	183.6	14.0	unconscious	1
184.45	0.85	0.5602865815162659	0.290304034948349	1.0	2.0	hammer	'V_nV'	hammer_14.jpg	2.0	2.0	Tools	Nonliving_Things	184.45	14.0	unconscious	0
185.3	0.85	0.5602865815162659	0.290304034948349	1.0	2.0	hammer	'V_nV'	hammer_14.jpg	2.0	2.0	Tools	Nonliving_Things	185.3	14.0	unconscious	0
186.15	0.85	0.5602865815162659	0.290304034948349	1.0	2.0	hammer	'V_nV'	hammer_14.jpg	2.0	2.0	Tools	Nonliving_Things	186.15	14.0	unconscious	0
187.0	0.85	0.5602865815162659	0.290304034948349	1.0	2.0	hammer	'V_nV'	hammer_14.jpg	2.0	2.0	Tools	Nonliving_Things	187.0	14.0	unconscious	0
187.85	0.85	0.4603065252304077	0.830305814743042	1.0	1.0	factory	'nV_V'	factory_11.jpg	4.0	1.0	Buildings	Nonliving_Things	187.85	15.0	unconscious	0
188.7	0.85	0.4603065252304077	0.830305814743042	1.0	1.0	factory	'nV_V'	factory_11.jpg	4.0	1.0	Buildings	Nonliving_Things	188.7	15.0	unconscious	0
189.55	0.85	0.4603065252304077	0.830305814743042	1.0	1.0	factory	'nV_V'	factory_11.jpg	4.0	1.0	Buildings	Nonliving_Things	189.55	15.0	unconscious	0
190.4	0.85	0.4603065252304077	0.830305814743042	1.0	1.0	factory	'nV_V'	factory_11.jpg	4.0	1.0	Buildings	Nonliving_Things	190.4	15.0	unconscious	0
191.25	0.85	0.4603065252304077	0.830305814743042	1.0	1.0	factory	'nV_V'	factory_11.jpg	4.0	1.0	Buildings	Nonliving_Things	191.25	15.0	unconscious	0
192.1	0.85	0.4603065252304077	0.830305814743042	1.0	1.0	factory	'nV_V'	factory_11.jpg	4.0	1.0	Buildings	Nonliving_Things	192.1	15.0	unconscious	0
192.95	0.85	0.4603065252304077	0.830305814743042	1.0	1.0	factory	'nV_V'	factory_11.jpg	4.0	1.0	Buildings	Nonliving_Things	192.95	15.0	unconscious	0
193.8	0.85	0.4603065252304077	0.830305814743042	1.0	1.0	factory	'nV_V'	factory_11.jpg	4.0	1.0	Buildings	Nonliving_Things	193.8	15.0	unconscious	1
194.65	0.85	0.4603065252304077	0.830305814743042	1.0	1.0	factory	'nV_V'	factory_11.jpg	4.0	1.0	Buildings	Nonliving_Things	194.65	15.0	unconscious	1
195.5	0.85	0.4603065252304077	0.830305814743042	1.0	1.0	factory	'nV_V'	factory_11.jpg	4.0	1.0	Buildings	Nonliving_Things	195.5	15.0	unconscious	1
196.35	0.85	0.4603065252304077	0.830305814743042	1.0	1.0	factory	'nV_V'	factory_11.jpg	4.0	1.0	Buildings	Nonliving_Things	196.35	15.0	unconscious	0
197.2	0.85	0.4603065252304077	0.830305814743042	1.0	1.0	factory	'nV_V'	factory_11.jpg	4.0	1.0	Buildings	Nonliving_Things	197.2	15.0	unconscious	0
198.05	0.85	0.4603065252304077	0.830305814743042	1.0	1.0	factory	'nV_V'	factory_11.jpg	4.0	1.0	Buildings	Nonliving_Things	198.05	15.0	unconscious	0
198.9	0.85	0.4603065252304077	0.830305814743042	1.0	1.0	factory	'nV_V'	factory_11.jpg	4.0	1.0	Buildings	Nonliving_Things	198.9	15.0	unconscious	0
199.75	0.85	0.4603065252304077	0.830305814743042	1.0	1.0	factory	'nV_V'	factory_11.jpg	4.0	1.0	Buildings	Nonliving_Things	199.75	15.0	unconscious	0
200.6	0.85	0.4603065252304077	0.830305814743042	1.0	1.0	factory	'nV_V'	factory_11.jpg	4.0	1.0	Buildings	Nonliving_Things	200.6	15.0	unconscious	0
201.45	0.85	0.4603065252304077	0.830305814743042	1.0	1.0	factory	'nV_V'	factory_11.jpg	4.0	1.0	Buildings	Nonliving_Things	201.45	15.0	unconscious	0
202.3	0.85	0.4102992415428161	0.3302999436855316	1.0	2.0	cheetah	'nV_V'	cheetah_13.jpg	6.0	2.0	Animals	Living_Things	202.3	16.0	glimpse	0
203.15	0.85	0.4102992415428161	0.3302999436855316	1.0	2.0	cheetah	'nV_V'	cheetah_13.jpg	6.0	2.0	Animals	Living_Things	203.15	16.0	glimpse	0
204.0	0.85	0.4102992415428161	0.3302999436855316	1.0	2.0	cheetah	'nV_V'	cheetah_13.jpg	6.0	2.0	Animals	Living_Things	204.0	16.0	glimpse	0
204.85	0.85	0.4102992415428161	0.3302999436855316	1.0	2.0	cheetah	'nV_V'	cheetah_13.jpg	6.0	2.0	Animals	Living_Things	204.85	16.0	glimpse	0
205.7	0.85	0.4102992415428161	0.3302999436855316	1.0	2.0	cheetah	'nV_V'	cheetah_13.jpg	6.0	2.0	Animals	Living_Things	205.7	16.0	glimpse	0
206.55	0.85	0.4102992415428161	0.3302999436855316	1.0	2.0	cheetah	'nV_V'	cheetah_13.jpg	6.0	2.0	Animals	Living_Things	206.55	16.0	glimpse	0
207.4	0.85	0.4102992415428161	0.3302999436855316	1.0	2.0	cheetah	'nV_V'	cheetah_13.jpg	6.0	2.0	Animals	Living_Things	207.4	16.0	glimpse	1
208.25	0.85	0.4102992415428161	0.3302999436855316	1.0	2.0	cheetah	'nV_V'	cheetah_13.jpg	6.0	2.0	Animals	Living_Things	208.25	16.0	glimpse	1
209.1	0.85	0.4102992415428161	0.3302999436855316	1.0	2.0	cheetah	'nV_V'	cheetah_13.jpg	6.0	2.0	Animals	Living_Things	209.1	16.0	glimpse	1
209.95	0.85	0.4102992415428161	0.3302999436855316	1.0	2.0	cheetah	'nV_V'	cheetah_13.jpg	6.0	2.0	Animals	Living_Things	209.95	16.0	glimpse	1
210.8	0.85	0.4102992415428161	0.3302999436855316	1.0	2.0	cheetah	'nV_V'	cheetah_13.jpg	6.0	2.0	Animals	Living_Things	210.8	16.0	glimpse	0
211.65	0.85	0.4102992415428161	0.3302999436855316	1.0	2.0	cheetah	'nV_V'	cheetah_13.jpg	6.0	2.0	Animals	Living_Things	211.65	16.0	glimpse	0
212.5	0.85	0.4102992415428161	0.3302999436855316	1.0	2.0	cheetah	'nV_V'	cheetah_13.jpg	6.0	2.0	Animals	Living_Things	212.5	16.0	glimpse	0
213.35	0.85	0.4102992415428161	0.3302999436855316	1.0	2.0	cheetah	'nV_V'	cheetah_13.jpg	6.0	2.0	Animals	Living_Things	213.35	16.0	glimpse	0
214.2	0.85	0.4102992415428161	0.3302999436855316	1.0	2.0	cheetah	'nV_V'	cheetah_13.jpg	6.0	2.0	Animals	Living_Things	214.2	16.0	glimpse	0
215.05	0.85	0.8203006982803345	0.7703008651733398	1.0	2.0	palace	'V_nV'	palace_13.jpg	5.0	2.0	Buildings	Nonliving_Things	215.05	17.0	unconscious	0
215.9	0.85	0.8203006982803345	0.7703008651733398	1.0	2.0	palace	'V_nV'	palace_13.jpg	5.0	2.0	Buildings	Nonliving_Things	215.9	17.0	unconscious	0
216.75	0.85	0.8203006982803345	0.7703008651733398	1.0	2.0	palace	'V_nV'	palace_13.jpg	5.0	2.0	Buildings	Nonliving_Things	216.75	17.0	unconscious	0
217.6	0.85	0.8203006982803345	0.7703008651733398	1.0	2.0	palace	'V_nV'	palace_13.jpg	5.0	2.0	Buildings	Nonliving_Things	217.6	17.0	unconscious	0
218.45	0.85	0.8203006982803345	0.7703008651733398	1.0	2.0	palace	'V_nV'	palace_13.jpg	5.0	2.0	Buildings	Nonliving_Things	218.45	17.0	unconscious	0
219.3	0.85	0.8203006982803345	0.7703008651733398	1.0	2.0	palace	'V_nV'	palace_13.jpg	5.0	2.0	Buildings	Nonliving_Things	219.3	17.0	unconscious	0
220.15	0.85	0.8203006982803345	0.7703008651733398	1.0	2.0	palace	'V_nV'	palace_13.jpg	5.0	2.0	Buildings	Nonliving_Things	220.15	17.0	unconscious	1
221.0	0.85	0.8203006982803345	0.7703008651733398	1.0	2.0	palace	'V_nV'	palace_13.jpg	5.0	2.0	Buildings	Nonliving_Things	221.0	17.0	unconscious	1
221.85	0.85	0.8203006982803345	0.7703008651733398	1.0	2.0	palace	'V_nV'	palace_13.jpg	5.0	2.0	Buildings	Nonliving_Things	221.85	17.0	unconscious	1
222.7	0.85	0.8203006982803345	0.7703008651733398	1.0	2.0	palace	'V_nV'	palace_13.jpg	5.0	2.0	Buildings	Nonliving_Things	222.7	17.0	unconscious	1
223.55	0.85	0.8203006982803345	0.7703008651733398	1.0	2.0	palace	'V_nV'	palace_13.jpg	5.0	2.0	Buildings	Nonliving_Things	223.55	17.0	unconscious	0
224.4	0.85	0.8203006982803345	0.7703008651733398	1.0	2.0	palace	'V_nV'	palace_13.jpg	5.0	2.0	Buildings	Nonliving_Things	224.4	17.0	unconscious	0
225.25	0.85	0.8203006982803345	0.7703008651733398	1.0	2.0	palace	'V_nV'	palace_13.jpg	5.0	2.0	Buildings	Nonliving_Things	225.25	17.0	unconscious	0
226.1	0.85	0.8203006982803345	0.7703008651733398	1.0	2.0	palace	'V_nV'	palace_13.jpg	5.0	2.0	Buildings	Nonliving_Things	226.1	17.0	unconscious	0
226.95	0.85	0.8203006982803345	0.7703008651733398	1.0	2.0	palace	'V_nV'	palace_13.jpg	5.0	2.0	Buildings	Nonliving_Things	226.95	17.0	unconscious	0
227.8	0.85	0.6002624034881592	0.2703098654747009	1.0	1.0	motorbike	'nV_V'	motorbike_2.jpg	7.0	1.0	Vehicles	Nonliving_Things	227.8	18.0	conscious	0
228.65	0.85	0.6002624034881592	0.2703098654747009	1.0	1.0	motorbike	'nV_V'	motorbike_2.jpg	7.0	1.0	Vehicles	Nonliving_Things	228.65	18.0	conscious	0
229.5	0.85	0.6002624034881592	0.2703098654747009	1.0	1.0	motorbike	'nV_V'	motorbike_2.jpg	7.0	1.0	Vehicles	Nonliving_Things	229.5	18.0	conscious	0
230.35	0.85	0.6002624034881592	0.2703098654747009	1.0	1.0	motorbike	'nV_V'	motorbike_2.jpg	7.0	1.0	Vehicles	Nonliving_Things	230.35	18.0	conscious	0
231.2	0.85	0.6002624034881592	0.2703098654747009	1.0	1.0	motorbike	'nV_V'	motorbike_2.jpg	7.0	1.0	Vehicles	Nonliving_Things	231.2	18.0	conscious	0
232.05	0.85	0.6002624034881592	0.2703098654747009	1.0	1.0	motorbike	'nV_V'	motorbike_2.jpg	7.0	1.0	Vehicles	Nonliving_Things	232.05	18.0	conscious	0
232.9	0.85	0.6002624034881592	0.2703098654747009	1.0	1.0	motorbike	'nV_V'	motorbike_2.jpg	7.0	1.0	Vehicles	Nonliving_Things	232.9	18.0	conscious	1
233.75	0.85	0.6002624034881592	0.2703098654747009	1.0	1.0	motorbike	'nV_V'	motorbike_2.jpg	7.0	1.0	Vehicles	Nonliving_Things	233.75	18.0	conscious	1
234.6	0.85	0.6002624034881592	0.2703098654747009	1.0	1.0	motorbike	'nV_V'	motorbike_2.jpg	7.0	1.0	Vehicles	Nonliving_Things	234.6	18.0	conscious	1
235.45	0.85	0.6002624034881592	0.2703098654747009	1.0	1.0	motorbike	'nV_V'	motorbike_2.jpg	7.0	1.0	Vehicles	Nonliving_Things	235.45	18.0	conscious	1
236.3	0.85	0.6002624034881592	0.2703098654747009	1.0	1.0	motorbike	'nV_V'	motorbike_2.jpg	7.0	1.0	Vehicles	Nonliving_Things	236.3	18.0	conscious	0
237.15	0.85	0.6002624034881592	0.2703098654747009	1.0	1.0	motorbike	'nV_V'	motorbike_2.jpg	7.0	1.0	Vehicles	Nonliving_Things	237.15	18.0	conscious	0
238.0	0.85	0.6002624034881592	0.2703098654747009	1.0	1.0	motorbike	'nV_V'	motorbike_2.jpg	7.0	1.0	Vehicles	Nonliving_Things	238.0	18.0	conscious	0
238.85	0.85	0.6002624034881592	0.2703098654747009	1.0	1.0	motorbike	'nV_V'	motorbike_2.jpg	7.0	1.0	Vehicles	Nonliving_Things	238.85	18.0	conscious	0
239.7	0.85	0.6002624034881592	0.2703098654747009	1.0	1.0	motorbike	'nV_V'	motorbike_2.jpg	7.0	1.0	Vehicles	Nonliving_Things	239.7	18.0	conscious	0
240.55	0.85	0.6002624034881592	0.2703098654747009	1.0	1.0	motorbike	'nV_V'	motorbike_2.jpg	7.0	1.0	Vehicles	Nonliving_Things	240.55	18.0	conscious	0
241.4	0.85	0.6002624034881592	0.2703098654747009	1.0	1.0	motorbike	'nV_V'	motorbike_2.jpg	7.0	1.0	Vehicles	Nonliving_Things	241.4	18.0	conscious	0
242.25	0.85	1.0602993965148926	0.960312008857727	1.0	1.0	lectern	'nV_V'	lectern_6.jpg	5.0	1.0	Furniture	Nonliving_Things	242.25	19.0	glimpse	0
243.1	0.85	1.0602993965148926	0.960312008857727	1.0	1.0	lectern	'nV_V'	lectern_6.jpg	5.0	1.0	Furniture	Nonliving_Things	243.1	19.0	glimpse	0
243.95	0.85	1.0602993965148926	0.960312008857727	1.0	1.0	lectern	'nV_V'	lectern_6.jpg	5.0	1.0	Furniture	Nonliving_Things	243.95	19.0	glimpse	0
244.8	0.85	1.0602993965148926	0.960312008857727	1.0	1.0	lectern	'nV_V'	lectern_6.jpg	5.0	1.0	Furniture	Nonliving_Things	244.8	19.0	glimpse	0
245.65	0.85	1.0602993965148926	0.960312008857727	1.0	1.0	lectern	'nV_V'	lectern_6.jpg	5.0	1.0	Furniture	Nonliving_Things	245.65	19.0	glimpse	0
246.5	0.85	1.0602993965148926	0.960312008857727	1.0	1.0	lectern	'nV_V'	lectern_6.jpg	5.0	1.0	Furniture	Nonliving_Things	246.5	19.0	glimpse	0
247.35	0.85	1.0602993965148926	0.960312008857727	1.0	1.0	lectern	'nV_V'	lectern_6.jpg	5.0	1.0	Furniture	Nonliving_Things	247.35	19.0	glimpse	0
248.2	0.85	1.0602993965148926	0.960312008857727	1.0	1.0	lectern	'nV_V'	lectern_6.jpg	5.0	1.0	Furniture	Nonliving_Things	248.2	19.0	glimpse	1
249.05	0.85	1.0602993965148926	0.960312008857727	1.0	1.0	lectern	'nV_V'	lectern_6.jpg	5.0	1.0	Furniture	Nonliving_Things	249.05	19.0	glimpse	1
249.9	0.85	1.0602993965148926	0.960312008857727	1.0	1.0	lectern	'nV_V'	lectern_6.jpg	5.0	1.0	Furniture	Nonliving_Things	249.9	19.0	glimpse	1
250.75	0.85	1.0602993965148926	0.960312008857727	1.0	1.0	lectern	'nV_V'	lectern_6.jpg	5.0	1.0	Furniture	Nonliving_Things	250.75	19.0	glimpse	0
251.6	0.85	1.0602993965148926	0.960312008857727	1.0	1.0	lectern	'nV_V'	lectern_6.jpg	5.0	1.0	Furniture	Nonliving_Things	251.6	19.0	glimpse	0
252.45	0.85	1.0602993965148926	0.960312008857727	1.0	1.0	lectern	'nV_V'	lectern_6.jpg	5.0	1.0	Furniture	Nonliving_Things	252.45	19.0	glimpse	0
253.3	0.85	1.0602993965148926	0.960312008857727	1.0	1.0	lectern	'nV_V'	lectern_6.jpg	5.0	1.0	Furniture	Nonliving_Things	253.3	19.0	glimpse	0
254.15	0.85	1.0602993965148926	0.960312008857727	1.0	1.0	lectern	'nV_V'	lectern_6.jpg	5.0	1.0	Furniture	Nonliving_Things	254.15	19.0	glimpse	0
255.0	0.85	0.9003045558929443	0.4802992641925812	0.0	1.0	armadillo	'V_nV'	armadillo_26.jpg	4.0	2.0	Animals	Living_Things	255.0	20.0	unconscious	0
255.85	0.85	0.9003045558929443	0.4802992641925812	0.0	1.0	armadillo	'V_nV'	armadillo_26.jpg	4.0	2.0	Animals	Living_Things	255.85	20.0	unconscious	0
256.7	0.85	0.9003045558929443	0.4802992641925812	0.0	1.0	armadillo	'V_nV'	armadillo_26.jpg	4.0	2.0	Animals	Living_Things	256.7	20.0	unconscious	0
257.55	0.85	0.9003045558929443	0.4802992641925812	0.0	1.0	armadillo	'V_nV'	armadillo_26.jpg	4.0	2.0	Animals	Living_Things	257.55	20.0	unconscious	0
258.4	0.85	0.9003045558929443	0.4802992641925812	0.0	1.0	armadillo	'V_nV'	armadillo_26.jpg	4.0	2.0	Animals	Living_Things	258.4	20.0	unconscious	0
259.25	0.85	0.9003045558929443	0.4802992641925812	0.0	1.0	armadillo	'V_nV'	armadillo_26.jpg	4.0	2.0	Animals	Living_Things	259.25	20.0	unconscious	0
260.1	0.85	0.9003045558929443	0.4802992641925812	0.0	1.0	armadillo	'V_nV'	armadillo_26.jpg	4.0	2.0	Animals	Living_Things	260.1	20.0	unconscious	1
260.95	0.85	0.9003045558929443	0.4802992641925812	0.0	1.0	armadillo	'V_nV'	armadillo_26.jpg	4.0	2.0	Animals	Living_Things	260.95	20.0	unconscious	1
261.8	0.85	0.9003045558929443	0.4802992641925812	0.0	1.0	armadillo	'V_nV'	armadillo_26.jpg	4.0	2.0	Animals	Living_Things	261.8	20.0	unconscious	1
262.65	0.85	0.9003045558929443	0.4802992641925812	0.0	1.0	armadillo	'V_nV'	armadillo_26.jpg	4.0	2.0	Animals	Living_Things	262.65	20.0	unconscious	1
263.5	0.85	0.9003045558929443	0.4802992641925812	0.0	1.0	armadillo	'V_nV'	armadillo_26.jpg	4.0	2.0	Animals	Living_Things	263.5	20.0	unconscious	0
264.35	0.85	0.9003045558929443	0.4802992641925812	0.0	1.0	armadillo	'V_nV'	armadillo_26.jpg	4.0	2.0	Animals	Living_Things	264.35	20.0	unconscious	0
265.2	0.85	0.9003045558929443	0.4802992641925812	0.0	1.0	armadillo	'V_nV'	armadillo_26.jpg	4.0	2.0	Animals	Living_Things	265.2	20.0	unconscious	0
266.05	0.85	0.9003045558929443	0.4802992641925812	0.0	1.0	armadillo	'V_nV'	armadillo_26.jpg	4.0	2.0	Animals	Living_Things	266.05	20.0	unconscious	0
266.9	0.85	0.9003045558929443	0.4802992641925812	0.0	1.0	armadillo	'V_nV'	armadillo_26.jpg	4.0	2.0	Animals	Living_Things	266.9	20.0	unconscious	0
267.75	0.85	0.9003045558929443	0.4802992641925812	0.0	1.0	armadillo	'V_nV'	armadillo_26.jpg	4.0	2.0	Animals	Living_Things	267.75	20.0	unconscious	0
268.6	0.85	0.9003045558929443	0.4802992641925812	0.0	1.0	armadillo	'V_nV'	armadillo_26.jpg	4.0	2.0	Animals	Living_Things	268.6	20.0	unconscious	0
269.45	0.85	0.5703461170196533	0.4003417491912842	1.0	1.0	filling-cabinet	'nV_V'	filling-cabinet_22.j	5.0	1.0	Furniture	Nonliving_Things	269.45	21.0	glimpse	0
270.3	0.85	0.5703461170196533	0.4003417491912842	1.0	1.0	filling-cabinet	'nV_V'	filling-cabinet_22.j	5.0	1.0	Furniture	Nonliving_Things	270.3	21.0	glimpse	0
271.15	0.85	0.5703461170196533	0.4003417491912842	1.0	1.0	filling-cabinet	'nV_V'	filling-cabinet_22.j	5.0	1.0	Furniture	Nonliving_Things	271.15	21.0	glimpse	0
272.0	0.85	0.5703461170196533	0.4003417491912842	1.0	1.0	filling-cabinet	'nV_V'	filling-cabinet_22.j	5.0	1.0	Furniture	Nonliving_Things	272.0	21.0	glimpse	0
272.85	0.85	0.5703461170196533	0.4003417491912842	1.0	1.0	filling-cabinet	'nV_V'	filling-cabinet_22.j	5.0	1.0	Furniture	Nonliving_Things	272.85	21.0	glimpse	0
273.7	0.85	0.5703461170196533	0.4003417491912842	1.0	1.0	filling-cabinet	'nV_V'	filling-cabinet_22.j	5.0	1.0	Furniture	Nonliving_Things	273.7	21.0	glimpse	0
274.55	0.85	0.5703461170196533	0.4003417491912842	1.0	1.0	filling-cabinet	'nV_V'	filling-cabinet_22.j	5.0	1.0	Furniture	Nonliving_Things	274.55	21.0	glimpse	1
275.4	0.85	0.5703461170196533	0.4003417491912842	1.0	1.0	filling-cabinet	'nV_V'	filling-cabinet_22.j	5.0	1.0	Furniture	Nonliving_Things	275.4	21.0	glimpse	1
276.25	0.85	0.5703461170196533	0.4003417491912842	1.0	1.0	filling-cabinet	'nV_V'	filling-cabinet_22.j	5.0	1.0	Furniture	Nonliving_Things	276.25	21.0	glimpse	1
277.1	0.85	0.5703461170196533	0.4003417491912842	1.0	1.0	filling-cabinet	'nV_V'	filling-cabinet_22.j	5.0	1.0	Furniture	Nonliving_Things	277.1	21.0	glimpse	1
277.95	0.85	0.5703461170196533	0.4003417491912842	1.0	1.0	filling-cabinet	'nV_V'	filling-cabinet_22.j	5.0	1.0	Furniture	Nonliving_Things	277.95	21.0	glimpse	0
278.8	0.85	0.5703461170196533	0.4003417491912842	1.0	1.0	filling-cabinet	'nV_V'	filling-cabinet_22.j	5.0	1.0	Furniture	Nonliving_Things	278.8	21.0	glimpse	0
279.65	0.85	0.5703461170196533	0.4003417491912842	1.0	1.0	filling-cabinet	'nV_V'	filling-cabinet_22.j	5.0	1.0	Furniture	Nonliving_Things	279.65	21.0	glimpse	0
280.5	0.85	0.5703461170196533	0.4003417491912842	1.0	1.0	filling-cabinet	'nV_V'	filling-cabinet_22.j	5.0	1.0	Furniture	Nonliving_Things	280.5	21.0	glimpse	0
281.35	0.85	0.5703461170196533	0.4003417491912842	1.0	1.0	filling-cabinet	'nV_V'	filling-cabinet_22.j	5.0	1.0	Furniture	Nonliving_Things	281.35	21.0	glimpse	0
282.2	0.85	0.5703461170196533	0.4003417491912842	1.0	1.0	filling-cabinet	'nV_V'	filling-cabinet_22.j	5.0	1.0	Furniture	Nonliving_Things	282.2	21.0	glimpse	0
283.05	0.85	1.1502622365951538	0.5103059411048889	0.0	1.0	butterfly	'V_nV'	butterfly_19.jpg	4.0	2.0	Insects	Living_Things	283.05	22.0	unconscious	0
283.9	0.85	1.1502622365951538	0.5103059411048889	0.0	1.0	butterfly	'V_nV'	butterfly_19.jpg	4.0	2.0	Insects	Living_Things	283.9	22.0	unconscious	0
284.75	0.85	1.1502622365951538	0.5103059411048889	0.0	1.0	butterfly	'V_nV'	butterfly_19.jpg	4.0	2.0	Insects	Living_Things	284.75	22.0	unconscious	0
285.6	0.85	1.1502622365951538	0.5103059411048889	0.0	1.0	butterfly	'V_nV'	butterfly_19.jpg	4.0	2.0	Insects	Living_Things	285.6	22.0	unconscious	0
286.45	0.85	1.1502622365951538	0.5103059411048889	0.0	1.0	butterfly	'V_nV'	butterfly_19.jpg	4.0	2.0	Insects	Living_Things	286.45	22.0	unconscious	0
287.3	0.85	1.1502622365951538	0.5103059411048889	0.0	1.0	butterfly	'V_nV'	butterfly_19.jpg	4.0	2.0	Insects	Living_Things	287.3	22.0	unconscious	0
288.15	0.85	1.1502622365951538	0.5103059411048889	0.0	1.0	butterfly	'V_nV'	butterfly_19.jpg	4.0	2.0	Insects	Living_Things	288.15	22.0	unconscious	0
289.0	0.85	1.1502622365951538	0.5103059411048889	0.0	1.0	butterfly	'V_nV'	butterfly_19.jpg	4.0	2.0	Insects	Living_Things	289.0	22.0	unconscious	1
289.85	0.85	1.1502622365951538	0.5103059411048889	0.0	1.0	butterfly	'V_nV'	butterfly_19.jpg	4.0	2.0	Insects	Living_Things	289.85	22.0	unconscious	1
290.7	0.85	1.1502622365951538	0.5103059411048889	0.0	1.0	butterfly	'V_nV'	butterfly_19.jpg	4.0	2.0	Insects	Living_Things	290.7	22.0	unconscious	1
291.55	0.85	1.1502622365951538	0.5103059411048889	0.0	1.0	butterfly	'V_nV'	butterfly_19.jpg	4.0	2.0	Insects	Living_Things	291.55	22.0	unconscious	0
292.4	0.85	1.1502622365951538	0.5103059411048889	0.0	1.0	butterfly	'V_nV'	butterfly_19.jpg	4.0	2.0	Insects	Living_Things	292.4	22.0	unconscious	0
293.25	0.85	1.1502622365951538	0.5103059411048889	0.0	1.0	butterfly	'V_nV'	butterfly_19.jpg	4.0	2.0	Insects	Living_Things	293.25	22.0	unconscious	0
294.1	0.85	1.1502622365951538	0.5103059411048889	0.0	1.0	butterfly	'V_nV'	butterfly_19.jpg	4.0	2.0	Insects	Living_Things	294.1	22.0	unconscious	0
294.95	0.85	1.1502622365951538	0.5103059411048889	0.0	1.0	butterfly	'V_nV'	butterfly_19.jpg	4.0	2.0	Insects	Living_Things	294.95	22.0	unconscious	0
295.8	0.85	1.1502622365951538	0.5103059411048889	0.0	1.0	butterfly	'V_nV'	butterfly_19.jpg	4.0	2.0	Insects	Living_Things	295.8	22.0	unconscious	0
296.65	0.85	0.7702865600585938	0.8003405928611755	1.0	1.0	tiger	'V_nV'	tiger_25.jpg	7.0	1.0	Animals	Living_Things	296.65	23.0	conscious	0
297.5	0.85	0.7702865600585938	0.8003405928611755	1.0	1.0	tiger	'V_nV'	tiger_25.jpg	7.0	1.0	Animals	Living_Things	297.5	23.0	conscious	0
298.35	0.85	0.7702865600585938	0.8003405928611755	1.0	1.0	tiger	'V_nV'	tiger_25.jpg	7.0	1.0	Animals	Living_Things	298.35	23.0	conscious	0
299.2	0.85	0.7702865600585938	0.8003405928611755	1.0	1.0	tiger	'V_nV'	tiger_25.jpg	7.0	1.0	Animals	Living_Things	299.2	23.0	conscious	0
300.05	0.85	0.7702865600585938	0.8003405928611755	1.0	1.0	tiger	'V_nV'	tiger_25.jpg	7.0	1.0	Animals	Living_Things	300.05	23.0	conscious	0
300.9	0.85	0.7702865600585938	0.8003405928611755	1.0	1.0	tiger	'V_nV'	tiger_25.jpg	7.0	1.0	Animals	Living_Things	300.9	23.0	conscious	0
301.75	0.85	0.7702865600585938	0.8003405928611755	1.0	1.0	tiger	'V_nV'	tiger_25.jpg	7.0	1.0	Animals	Living_Things	301.75	23.0	conscious	1
302.6	0.85	0.7702865600585938	0.8003405928611755	1.0	1.0	tiger	'V_nV'	tiger_25.jpg	7.0	1.0	Animals	Living_Things	302.6	23.0	conscious	1
303.45	0.85	0.7702865600585938	0.8003405928611755	1.0	1.0	tiger	'V_nV'	tiger_25.jpg	7.0	1.0	Animals	Living_Things	303.45	23.0	conscious	1
304.3	0.85	0.7702865600585938	0.8003405928611755	1.0	1.0	tiger	'V_nV'	tiger_25.jpg	7.0	1.0	Animals	Living_Things	304.3	23.0	conscious	1
305.15	0.85	0.7702865600585938	0.8003405928611755	1.0	1.0	tiger	'V_nV'	tiger_25.jpg	7.0	1.0	Animals	Living_Things	305.15	23.0	conscious	0
306.0	0.85	0.7702865600585938	0.8003405928611755	1.0	1.0	tiger	'V_nV'	tiger_25.jpg	7.0	1.0	Animals	Living_Things	306.0	23.0	conscious	0
306.85	0.85	0.7702865600585938	0.8003405928611755	1.0	1.0	tiger	'V_nV'	tiger_25.jpg	7.0	1.0	Animals	Living_Things	306.85	23.0	conscious	0
307.7	0.85	0.7702865600585938	0.8003405928611755	1.0	1.0	tiger	'V_nV'	tiger_25.jpg	7.0	1.0	Animals	Living_Things	307.7	23.0	conscious	0
308.55	0.85	0.7702865600585938	0.8003405928611755	1.0	1.0	tiger	'V_nV'	tiger_25.jpg	7.0	1.0	Animals	Living_Things	308.55	23.0	conscious	0
309.4	0.85	0.7702865600585938	0.8003405928611755	1.0	1.0	tiger	'V_nV'	tiger_25.jpg	7.0	1.0	Animals	Living_Things	309.4	23.0	conscious	0
310.25	0.85	1.000330686569214	1.3603116273880005	0.0	1.0	barn-owl	'V_nV'	barn-owl_14.jpg	5.0	2.0	Birds	Living_Things	310.25	24.0	glimpse	0
311.1	0.85	1.000330686569214	1.3603116273880005	0.0	1.0	barn-owl	'V_nV'	barn-owl_14.jpg	5.0	2.0	Birds	Living_Things	311.1	24.0	glimpse	0
311.95	0.85	1.000330686569214	1.3603116273880005	0.0	1.0	barn-owl	'V_nV'	barn-owl_14.jpg	5.0	2.0	Birds	Living_Things	311.95	24.0	glimpse	0
312.8	0.85	1.000330686569214	1.3603116273880005	0.0	1.0	barn-owl	'V_nV'	barn-owl_14.jpg	5.0	2.0	Birds	Living_Things	312.8	24.0	glimpse	0
313.65	0.85	1.000330686569214	1.3603116273880005	0.0	1.0	barn-owl	'V_nV'	barn-owl_14.jpg	5.0	2.0	Birds	Living_Things	313.65	24.0	glimpse	0
314.5	0.85	1.000330686569214	1.3603116273880005	0.0	1.0	barn-owl	'V_nV'	barn-owl_14.jpg	5.0	2.0	Birds	Living_Things	314.5	24.0	glimpse	0
315.35	0.85	1.000330686569214	1.3603116273880005	0.0	1.0	barn-owl	'V_nV'	barn-owl_14.jpg	5.0	2.0	Birds	Living_Things	315.35	24.0	glimpse	1
316.2	0.85	1.000330686569214	1.3603116273880005	0.0	1.0	barn-owl	'V_nV'	barn-owl_14.jpg	5.0	2.0	Birds	Living_Things	316.2	24.0	glimpse	1
317.05	0.85	1.000330686569214	1.3603116273880005	0.0	1.0	barn-owl	'V_nV'	barn-owl_14.jpg	5.0	2.0	Birds	Living_Things	317.05	24.0	glimpse	1
317.9	0.85	1.000330686569214	1.3603116273880005	0.0	1.0	barn-owl	'V_nV'	barn-owl_14.jpg	5.0	2.0	Birds	Living_Things	317.9	24.0	glimpse	1
318.75	0.85	1.000330686569214	1.3603116273880005	0.0	1.0	barn-owl	'V_nV'	barn-owl_14.jpg	5.0	2.0	Birds	Living_Things	318.75	24.0	glimpse	0
319.6	0.85	1.000330686569214	1.3603116273880005	0.0	1.0	barn-owl	'V_nV'	barn-owl_14.jpg	5.0	2.0	Birds	Living_Things	319.6	24.0	glimpse	0
320.45	0.85	1.000330686569214	1.3603116273880005	0.0	1.0	barn-owl	'V_nV'	barn-owl_14.jpg	5.0	2.0	Birds	Living_Things	320.45	24.0	glimpse	0
321.3	0.85	1.000330686569214	1.3603116273880005	0.0	1.0	barn-owl	'V_nV'	barn-owl_14.jpg	5.0	2.0	Birds	Living_Things	321.3	24.0	glimpse	0
322.15	0.85	0.5603014826774597	1.1102917194366455	0.0	1.0	cow	'V_nV'	cow_12.jpg	4.0	2.0	Animals	Living_Things	322.15	25.0	unconscious	0
323.0	0.85	0.5603014826774597	1.1102917194366455	0.0	1.0	cow	'V_nV'	cow_12.jpg	4.0	2.0	Animals	Living_Things	323.0	25.0	unconscious	0
323.85	0.85	0.5603014826774597	1.1102917194366455	0.0	1.0	cow	'V_nV'	cow_12.jpg	4.0	2.0	Animals	Living_Things	323.85	25.0	unconscious	0
324.7	0.85	0.5603014826774597	1.1102917194366455	0.0	1.0	cow	'V_nV'	cow_12.jpg	4.0	2.0	Animals	Living_Things	324.7	25.0	unconscious	0
325.55	0.85	0.5603014826774597	1.1102917194366455	0.0	1.0	cow	'V_nV'	cow_12.jpg	4.0	2.0	Animals	Living_Things	325.55	25.0	unconscious	0
326.4	0.85	0.5603014826774597	1.1102917194366455	0.0	1.0	cow	'V_nV'	cow_12.jpg	4.0	2.0	Animals	Living_Things	326.4	25.0	unconscious	0
327.25	0.85	0.5603014826774597	1.1102917194366455	0.0	1.0	cow	'V_nV'	cow_12.jpg	4.0	2.0	Animals	Living_Things	327.25	25.0	unconscious	0
328.1	0.85	0.5603014826774597	1.1102917194366455	0.0	1.0	cow	'V_nV'	cow_12.jpg	4.0	2.0	Animals	Living_Things	328.1	25.0	unconscious	1
328.95	0.85	0.5603014826774597	1.1102917194366455	0.0	1.0	cow	'V_nV'	cow_12.jpg	4.0	2.0	Animals	Living_Things	328.95	25.0	unconscious	1
329.8	0.85	0.5603014826774597	1.1102917194366455	0.0	1.0	cow	'V_nV'	cow_12.jpg	4.0	2.0	Animals	Living_Things	329.8	25.0	unconscious	1
330.65	0.85	0.5603014826774597	1.1102917194366455	0.0	1.0	cow	'V_nV'	cow_12.jpg	4.0	2.0	Animals	Living_Things	330.65	25.0	unconscious	0
331.5	0.85	0.5603014826774597	1.1102917194366455	0.0	1.0	cow	'V_nV'	cow_12.jpg	4.0	2.0	Animals	Living_Things	331.5	25.0	unconscious	0
332.35	0.85	0.5603014826774597	1.1102917194366455	0.0	1.0	cow	'V_nV'	cow_12.jpg	4.0	2.0	Animals	Living_Things	332.35	25.0	unconscious	0
333.2	0.85	0.5603014826774597	1.1102917194366455	0.0	1.0	cow	'V_nV'	cow_12.jpg	4.0	2.0	Animals	Living_Things	333.2	25.0	unconscious	0
334.05	0.85	0.5603014826774597	1.1102917194366455	0.0	1.0	cow	'V_nV'	cow_12.jpg	4.0	2.0	Animals	Living_Things	334.05	25.0	unconscious	0
334.9	0.85	0.5603014826774597	1.1102917194366455	0.0	1.0	cow	'V_nV'	cow_12.jpg	4.0	2.0	Animals	Living_Things	334.9	25.0	unconscious	0
335.75	0.85	0.6702556014060974	0.290292352437973	1.0	2.0	frying-pan	'V_nV'	frying-pan_17.jpg	6.0	2.0	Kitchen_Uten	Nonliving_Things	335.75	26.0	conscious	0
336.6	0.85	0.6702556014060974	0.290292352437973	1.0	2.0	frying-pan	'V_nV'	frying-pan_17.jpg	6.0	2.0	Kitchen_Uten	Nonliving_Things	336.6	26.0	conscious	0
337.45	0.85	0.6702556014060974	0.290292352437973	1.0	2.0	frying-pan	'V_nV'	frying-pan_17.jpg	6.0	2.0	Kitchen_Uten	Nonliving_Things	337.45	26.0	conscious	0
338.3	0.85	0.6702556014060974	0.290292352437973	1.0	2.0	frying-pan	'V_nV'	frying-pan_17.jpg	6.0	2.0	Kitchen_Uten	Nonliving_Things	338.3	26.0	conscious	0
339.15	0.85	0.6702556014060974	0.290292352437973	1.0	2.0	frying-pan	'V_nV'	frying-pan_17.jpg	6.0	2.0	Kitchen_Uten	Nonliving_Things	339.15	26.0	conscious	0
340.0	0.85	0.6702556014060974	0.290292352437973	1.0	2.0	frying-pan	'V_nV'	frying-pan_17.jpg	6.0	2.0	Kitchen_Uten	Nonliving_Things	340.0	26.0	conscious	0
340.85	0.85	0.6702556014060974	0.290292352437973	1.0	2.0	frying-pan	'V_nV'	frying-pan_17.jpg	6.0	2.0	Kitchen_Uten	Nonliving_Things	340.85	26.0	conscious	0
341.7	0.85	0.6702556014060974	0.290292352437973	1.0	2.0	frying-pan	'V_nV'	frying-pan_17.jpg	6.0	2.0	Kitchen_Uten	Nonliving_Things	341.7	26.0	conscious	1
342.55	0.85	0.6702556014060974	0.290292352437973	1.0	2.0	frying-pan	'V_nV'	frying-pan_17.jpg	6.0	2.0	Kitchen_Uten	Nonliving_Things	342.55	26.0	conscious	1
343.4	0.85	0.6702556014060974	0.290292352437973	1.0	2.0	frying-pan	'V_nV'	frying-pan_17.jpg	6.0	2.0	Kitchen_Uten	Nonliving_Things	343.4	26.0	conscious	1
344.25	0.85	0.6702556014060974	0.290292352437973	1.0	2.0	frying-pan	'V_nV'	frying-pan_17.jpg	6.0	2.0	Kitchen_Uten	Nonliving_Things	344.25	26.0	conscious	0
345.1	0.85	0.6702556014060974	0.290292352437973	1.0	2.0	frying-pan	'V_nV'	frying-pan_17.jpg	6.0	2.0	Kitchen_Uten	Nonliving_Things	345.1	26.0	conscious	0
345.95	0.85	0.6702556014060974	0.290292352437973	1.0	2.0	frying-pan	'V_nV'	frying-pan_17.jpg	6.0	2.0	Kitchen_Uten	Nonliving_Things	345.95	26.0	conscious	0
346.8	0.85	0.6702556014060974	0.290292352437973	1.0	2.0	frying-pan	'V_nV'	frying-pan_17.jpg	6.0	2.0	Kitchen_Uten	Nonliving_Things	346.8	26.0	conscious	0
347.65	0.85	0.6702556014060974	0.290292352437973	1.0	2.0	frying-pan	'V_nV'	frying-pan_17.jpg	6.0	2.0	Kitchen_Uten	Nonliving_Things	347.65	26.0	conscious	0
348.5	0.85	0.6403093338012695	0.7201747894287109	1.0	2.0	couch	'V_nV'	couch_0.jpg	4.0	2.0	Furniture	Nonliving_Things	348.5	27.0	glimpse	0
349.35	0.85	0.6403093338012695	0.7201747894287109	1.0	2.0	couch	'V_nV'	couch_0.jpg	4.0	2.0	Furniture	Nonliving_Things	349.35	27.0	glimpse	0
350.2	0.85	0.6403093338012695	0.7201747894287109	1.0	2.0	couch	'V_nV'	couch_0.jpg	4.0	2.0	Furniture	Nonliving_Things	350.2	27.0	glimpse	0
351.05	0.85	0.6403093338012695	0.7201747894287109	1.0	2.0	couch	'V_nV'	couch_0.jpg	4.0	2.0	Furniture	Nonliving_Things	351.05	27.0	glimpse	0
351.9	0.85	0.6403093338012695	0.7201747894287109	1.0	2.0	couch	'V_nV'	couch_0.jpg	4.0	2.0	Furniture	Nonliving_Things	351.9	27.0	glimpse	0
352.75	0.85	0.6403093338012695	0.7201747894287109	1.0	2.0	couch	'V_nV'	couch_0.jpg	4.0	2.0	Furniture	Nonliving_Things	352.75	27.0	glimpse	0
353.6	0.85	0.6403093338012695	0.7201747894287109	1.0	2.0	couch	'V_nV'	couch_0.jpg	4.0	2.0	Furniture	Nonliving_Things	353.6	27.0	glimpse	1
354.45	0.85	0.6403093338012695	0.7201747894287109	1.0	2.0	couch	'V_nV'	couch_0.jpg	4.0	2.0	Furniture	Nonliving_Things	354.45	27.0	glimpse	1
355.3	0.85	0.6403093338012695	0.7201747894287109	1.0	2.0	couch	'V_nV'	couch_0.jpg	4.0	2.0	Furniture	Nonliving_Things	355.3	27.0	glimpse	1
356.15	0.85	0.6403093338012695	0.7201747894287109	1.0	2.0	couch	'V_nV'	couch_0.jpg	4.0	2.0	Furniture	Nonliving_Things	356.15	27.0	glimpse	1
357.0	0.85	0.6403093338012695	0.7201747894287109	1.0	2.0	couch	'V_nV'	couch_0.jpg	4.0	2.0	Furniture	Nonliving_Things	357.0	27.0	glimpse	0
357.85	0.85	0.6403093338012695	0.7201747894287109	1.0	2.0	couch	'V_nV'	couch_0.jpg	4.0	2.0	Furniture	Nonliving_Things	357.85	27.0	glimpse	0
358.7	0.85	0.6403093338012695	0.7201747894287109	1.0	2.0	couch	'V_nV'	couch_0.jpg	4.0	2.0	Furniture	Nonliving_Things	358.7	27.0	glimpse	0
359.55	0.85	0.6403093338012695	0.7201747894287109	1.0	2.0	couch	'V_nV'	couch_0.jpg	4.0	2.0	Furniture	Nonliving_Things	359.55	27.0	glimpse	0
360.4	0.85	0.6403093338012695	0.7201747894287109	1.0	2.0	couch	'V_nV'	couch_0.jpg	4.0	2.0	Furniture	Nonliving_Things	360.4	27.0	glimpse	0
361.25	0.85	0.6403000354766846	0.2803381681442261	1.0	2.0	lamp	'V_nV'	lamp_1.jpg	3.0	2.0	Furniture	Nonliving_Things	361.25	28.0	conscious	0
362.1	0.85	0.6403000354766846	0.2803381681442261	1.0	2.0	lamp	'V_nV'	lamp_1.jpg	3.0	2.0	Furniture	Nonliving_Things	362.1	28.0	conscious	0
362.95	0.85	0.6403000354766846	0.2803381681442261	1.0	2.0	lamp	'V_nV'	lamp_1.jpg	3.0	2.0	Furniture	Nonliving_Things	362.95	28.0	conscious	0
363.8	0.85	0.6403000354766846	0.2803381681442261	1.0	2.0	lamp	'V_nV'	lamp_1.jpg	3.0	2.0	Furniture	Nonliving_Things	363.8	28.0	conscious	0
364.65	0.85	0.6403000354766846	0.2803381681442261	1.0	2.0	lamp	'V_nV'	lamp_1.jpg	3.0	2.0	Furniture	Nonliving_Things	364.65	28.0	conscious	0
365.5	0.85	0.6403000354766846	0.2803381681442261	1.0	2.0	lamp	'V_nV'	lamp_1.jpg	3.0	2.0	Furniture	Nonliving_Things	365.5	28.0	conscious	0
366.35	0.85	0.6403000354766846	0.2803381681442261	1.0	2.0	lamp	'V_nV'	lamp_1.jpg	3.0	2.0	Furniture	Nonliving_Things	366.35	28.0	conscious	1
367.2	0.85	0.6403000354766846	0.2803381681442261	1.0	2.0	lamp	'V_nV'	lamp_1.jpg	3.0	2.0	Furniture	Nonliving_Things	367.2	28.0	conscious	1
368.05	0.85	0.6403000354766846	0.2803381681442261	1.0	2.0	lamp	'V_nV'	lamp_1.jpg	3.0	2.0	Furniture	Nonliving_Things	368.05	28.0	conscious	1
368.9	0.85	0.6403000354766846	0.2803381681442261	1.0	2.0	lamp	'V_nV'	lamp_1.jpg	3.0	2.0	Furniture	Nonliving_Things	368.9	28.0	conscious	1
369.75	0.85	0.6403000354766846	0.2803381681442261	1.0	2.0	lamp	'V_nV'	lamp_1.jpg	3.0	2.0	Furniture	Nonliving_Things	369.75	28.0	conscious	0
370.6	0.85	0.6403000354766846	0.2803381681442261	1.0	2.0	lamp	'V_nV'	lamp_1.jpg	3.0	2.0	Furniture	Nonliving_Things	370.6	28.0	conscious	0
371.45	0.85	0.6403000354766846	0.2803381681442261	1.0	2.0	lamp	'V_nV'	lamp_1.jpg	3.0	2.0	Furniture	Nonliving_Things	371.45	28.0	conscious	0
372.3	0.85	0.6403000354766846	0.2803381681442261	1.0	2.0	lamp	'V_nV'	lamp_1.jpg	3.0	2.0	Furniture	Nonliving_Things	372.3	28.0	conscious	0
373.15	0.85	0.6403000354766846	0.2803381681442261	1.0	2.0	lamp	'V_nV'	lamp_1.jpg	3.0	2.0	Furniture	Nonliving_Things	373.15	28.0	conscious	0
374.0	0.85	0.6403000354766846	0.2803381681442261	1.0	2.0	lamp	'V_nV'	lamp_1.jpg	3.0	2.0	Furniture	Nonliving_Things	374.0	28.0	conscious	0
374.85	0.85	0.640178918838501	0.3202964067459106	0.0	2.0	tapir	'nV_V'	tapir_12.jpg	1.0	1.0	Animals	Living_Things	374.85	29.0	glimpse	0
375.7	0.85	0.640178918838501	0.3202964067459106	0.0	2.0	tapir	'nV_V'	tapir_12.jpg	1.0	1.0	Animals	Living_Things	375.7	29.0	glimpse	0
376.55	0.85	0.640178918838501	0.3202964067459106	0.0	2.0	tapir	'nV_V'	tapir_12.jpg	1.0	1.0	Animals	Living_Things	376.55	29.0	glimpse	0
377.4	0.85	0.640178918838501	0.3202964067459106	0.0	2.0	tapir	'nV_V'	tapir_12.jpg	1.0	1.0	Animals	Living_Things	377.4	29.0	glimpse	0
378.25	0.85	0.640178918838501	0.3202964067459106	0.0	2.0	tapir	'nV_V'	tapir_12.jpg	1.0	1.0	Animals	Living_Things	378.25	29.0	glimpse	0
379.1	0.85	0.640178918838501	0.3202964067459106	0.0	2.0	tapir	'nV_V'	tapir_12.jpg	1.0	1.0	Animals	Living_Things	379.1	29.0	glimpse	0
379.95	0.85	0.640178918838501	0.3202964067459106	0.0	2.0	tapir	'nV_V'	tapir_12.jpg	1.0	1.0	Animals	Living_Things	379.95	29.0	glimpse	1
380.8	0.85	0.640178918838501	0.3202964067459106	0.0	2.0	tapir	'nV_V'	tapir_12.jpg	1.0	1.0	Animals	Living_Things	380.8	29.0	glimpse	1
381.65	0.85	0.640178918838501	0.3202964067459106	0.0	2.0	tapir	'nV_V'	tapir_12.jpg	1.0	1.0	Animals	Living_Things	381.65	29.0	glimpse	1
382.5	0.85	0.640178918838501	0.3202964067459106	0.0	2.0	tapir	'nV_V'	tapir_12.jpg	1.0	1.0	Animals	Living_Things	382.5	29.0	glimpse	0
383.35	0.85	0.640178918838501	0.3202964067459106	0.0	2.0	tapir	'nV_V'	tapir_12.jpg	1.0	1.0	Animals	Living_Things	383.35	29.0	glimpse	0
384.2	0.85	0.640178918838501	0.3202964067459106	0.0	2.0	tapir	'nV_V'	tapir_12.jpg	1.0	1.0	Animals	Living_Things	384.2	29.0	glimpse	0
385.05	0.85	0.640178918838501	0.3202964067459106	0.0	2.0	tapir	'nV_V'	tapir_12.jpg	1.0	1.0	Animals	Living_Things	385.05	29.0	glimpse	0
385.9	0.85	0.640178918838501	0.3202964067459106	0.0	2.0	tapir	'nV_V'	tapir_12.jpg	1.0	1.0	Animals	Living_Things	385.9	29.0	glimpse	0
386.75	0.85	0.640178918838501	0.3202964067459106	0.0	2.0	tapir	'nV_V'	tapir_12.jpg	1.0	1.0	Animals	Living_Things	386.75	29.0	glimpse	0
387.6	0.85	1.460295796394348	n/a	1.0	1.0	crab	'V_nV'	crab_20.jpg	1.0	1.0	Marine_creatures	Living_Things	387.6	30.0	missing data	0
388.45	0.85	1.460295796394348	n/a	1.0	1.0	crab	'V_nV'	crab_20.jpg	1.0	1.0	Marine_creatures	Living_Things	388.45	30.0	missing data	0
389.3	0.85	1.460295796394348	n/a	1.0	1.0	crab	'V_nV'	crab_20.jpg	1.0	1.0	Marine_creatures	Living_Things	389.3	30.0	missing data	0
390.15	0.85	1.460295796394348	n/a	1.0	1.0	crab	'V_nV'	crab_20.jpg	1.0	1.0	Marine_creatures	Living_Things	390.15	30.0	missing data	0
391.0	0.85	1.460295796394348	n/a	1.0	1.0	crab	'V_nV'	crab_20.jpg	1.0	1.0	Marine_creatures	Living_Things	391.0	30.0	missing data	0
391.85	0.85	1.460295796394348	n/a	1.0	1.0	crab	'V_nV'	crab_20.jpg	1.0	1.0	Marine_creatures	Living_Things	391.85	30.0	missing data	0
392.7	0.85	1.460295796394348	n/a	1.0	1.0	crab	'V_nV'	crab_20.jpg	1.0	1.0	Marine_creatures	Living_Things	392.7	30.0	missing data	1
393.55	0.85	1.460295796394348	n/a	1.0	1.0	crab	'V_nV'	crab_20.jpg	1.0	1.0	Marine_creatures	Living_Things	393.55	30.0	missing data	1
394.4	0.85	1.460295796394348	n/a	1.0	1.0	crab	'V_nV'	crab_20.jpg	1.0	1.0	Marine_creatures	Living_Things	394.4	30.0	missing data	1
395.25	0.85	1.460295796394348	n/a	1.0	1.0	crab	'V_nV'	crab_20.jpg	1.0	1.0	Marine_creatures	Living_Things	395.25	30.0	missing data	1
396.1	0.85	1.460295796394348	n/a	1.0	1.0	crab	'V_nV'	crab_20.jpg	1.0	1.0	Marine_creatures	Living_Things	396.1	30.0	missing data	0
396.95	0.85	1.460295796394348	n/a	1.0	1.0	crab	'V_nV'	crab_20.jpg	1.0	1.0	Marine_creatures	Living_Things	396.95	30.0	missing data	0
397.8	0.85	1.460295796394348	n/a	1.0	1.0	crab	'V_nV'	crab_20.jpg	1.0	1.0	Marine_creatures	Living_Things	397.8	30.0	missing data	0
398.65	0.85	1.460295796394348	n/a	1.0	1.0	crab	'V_nV'	crab_20.jpg	1.0	1.0	Marine_creatures	Living_Things	398.65	30.0	missing data	0
399.5	0.85	0.6903030276298523	0.6403034925460815	1.0	2.0	duck	'nV_V'	duck_13.jpg	1.0	2.0	Birds	Living_Things	399.5	31.0	unconscious	0
400.35	0.85	0.6903030276298523	0.6403034925460815	1.0	2.0	duck	'nV_V'	duck_13.jpg	1.0	2.0	Birds	Living_Things	400.35	31.0	unconscious	0
401.2	0.85	0.6903030276298523	0.6403034925460815	1.0	2.0	duck	'nV_V'	duck_13.jpg	1.0	2.0	Birds	Living_Things	401.2	31.0	unconscious	0
402.05	0.85	0.6903030276298523	0.6403034925460815	1.0	2.0	duck	'nV_V'	duck_13.jpg	1.0	2.0	Birds	Living_Things	402.05	31.0	unconscious	0
402.9	0.85	0.6903030276298523	0.6403034925460815	1.0	2.0	duck	'nV_V'	duck_13.jpg	1.0	2.0	Birds	Living_Things	402.9	31.0	unconscious	0
403.75	0.85	0.6903030276298523	0.6403034925460815	1.0	2.0	duck	'nV_V'	duck_13.jpg	1.0	2.0	Birds	Living_Things	403.75	31.0	unconscious	0
404.6	0.85	0.6903030276298523	0.6403034925460815	1.0	2.0	duck	'nV_V'	duck_13.jpg	1.0	2.0	Birds	Living_Things	404.6	31.0	unconscious	0
405.45	0.85	0.6903030276298523	0.6403034925460815	1.0	2.0	duck	'nV_V'	duck_13.jpg	1.0	2.0	Birds	Living_Things	405.45	31.0	unconscious	1
406.3	0.85	0.6903030276298523	0.6403034925460815	1.0	2.0	duck	'nV_V'	duck_13.jpg	1.0	2.0	Birds	Living_Things	406.3	31.0	unconscious	1
407.15	0.85	0.6903030276298523	0.6403034925460815	1.0	2.0	duck	'nV_V'	duck_13.jpg	1.0	2.0	Birds	Living_Things	407.15	31.0	unconscious	1
408.0	0.85	0.6903030276298523	0.6403034925460815	1.0	2.0	duck	'nV_V'	duck_13.jpg	1.0	2.0	Birds	Living_Things	408.0	31.0	unconscious	0
408.85	0.85	0.6903030276298523	0.6403034925460815	1.0	2.0	duck	'nV_V'	duck_13.jpg	1.0	2.0	Birds	Living_Things	408.85	31.0	unconscious	0
409.7	0.85	0.6903030276298523	0.6403034925460815	1.0	2.0	duck	'nV_V'	duck_13.jpg	1.0	2.0	Birds	Living_Things	409.7	31.0	unconscious	0
410.55	0.85	0.6903030276298523	0.6403034925460815	1.0	2.0	duck	'nV_V'	duck_13.jpg	1.0	2.0	Birds	Living_Things	410.55	31.0	unconscious	0
411.4	0.85	0.6903030276298523	0.6403034925460815	1.0	2.0	duck	'nV_V'	duck_13.jpg	1.0	2.0	Birds	Living_Things	411.4	31.0	unconscious	0
412.25	0.85	0.6903030276298523	0.6403034925460815	1.0	2.0	duck	'nV_V'	duck_13.jpg	1.0	2.0	Birds	Living_Things	412.25	31.0	unconscious	0
413.1	0.85	0.6903030276298523	0.6403034925460815	1.0	2.0	duck	'nV_V'	duck_13.jpg	1.0	2.0	Birds	Living_Things	413.1	31.0	unconscious	0
413.95	0.85	0.6903030276298523	0.6403034925460815	1.0	2.0	duck	'nV_V'	duck_13.jpg	1.0	2.0	Birds	Living_Things	413.95	31.0	unconscious	0
414.8	0.85	0.5203013420104979	0.2603130042552948	0.0	2.0	dolphin	'nV_V'	dolphin_5.jpg	2.0	1.0	Marine_creatures	Living_Things	414.8	32.0	glimpse	0
415.65	0.85	0.5203013420104979	0.2603130042552948	0.0	2.0	dolphin	'nV_V'	dolphin_5.jpg	2.0	1.0	Marine_creatures	Living_Things	415.65	32.0	glimpse	0
416.5	0.85	0.5203013420104979	0.2603130042552948	0.0	2.0	dolphin	'nV_V'	dolphin_5.jpg	2.0	1.0	Marine_creatures	Living_Things	416.5	32.0	glimpse	0
417.35	0.85	0.5203013420104979	0.2603130042552948	0.0	2.0	dolphin	'nV_V'	dolphin_5.jpg	2.0	1.0	Marine_creatures	Living_Things	417.35	32.0	glimpse	0
418.2	0.85	0.5203013420104979	0.2603130042552948	0.0	2.0	dolphin	'nV_V'	dolphin_5.jpg	2.0	1.0	Marine_creatures	Living_Things	418.2	32.0	glimpse	0
419.05	0.85	0.5203013420104979	0.2603130042552948	0.0	2.0	dolphin	'nV_V'	dolphin_5.jpg	2.0	1.0	Marine_creatures	Living_Things	419.05	32.0	glimpse	0
419.9	0.85	0.5203013420104979	0.2603130042552948	0.0	2.0	dolphin	'nV_V'	dolphin_5.jpg	2.0	1.0	Marine_creatures	Living_Things	419.9	32.0	glimpse	1
420.75	0.85	0.5203013420104979	0.2603130042552948	0.0	2.0	dolphin	'nV_V'	dolphin_5.jpg	2.0	1.0	Marine_creatures	Living_Things	420.75	32.0	glimpse	1
421.6	0.85	0.5203013420104979	0.2603130042552948	0.0	2.0	dolphin	'nV_V'	dolphin_5.jpg	2.0	1.0	Marine_creatures	Living_Things	421.6	32.0	glimpse	1
422.45	0.85	0.5203013420104979	0.2603130042552948	0.0	2.0	dolphin	'nV_V'	dolphin_5.jpg	2.0	1.0	Marine_creatures	Living_Things	422.45	32.0	glimpse	1
423.3	0.85	0.5203013420104979	0.2603130042552948	0.0	2.0	dolphin	'nV_V'	dolphin_5.jpg	2.0	1.0	Marine_creatures	Living_Things	423.3	32.0	glimpse	0
424.15	0.85	0.5203013420104979	0.2603130042552948	0.0	2.0	dolphin	'nV_V'	dolphin_5.jpg	2.0	1.0	Marine_creatures	Living_Things	424.15	32.0	glimpse	0
425.0	0.85	0.5203013420104979	0.2603130042552948	0.0	2.0	dolphin	'nV_V'	dolphin_5.jpg	2.0	1.0	Marine_creatures	Living_Things	425.0	32.0	glimpse	0
425.85	0.85	0.5203013420104979	0.2603130042552948	0.0	2.0	dolphin	'nV_V'	dolphin_5.jpg	2.0	1.0	Marine_creatures	Living_Things	425.85	32.0	glimpse	0
426.7	0.85	0.5203013420104979	0.2603130042552948	0.0	2.0	dolphin	'nV_V'	dolphin_5.jpg	2.0	1.0	Marine_creatures	Living_Things	426.7	32.0	glimpse	0
427.55	0.85	0.5203013420104979	0.2603130042552948	0.0	2.0	dolphin	'nV_V'	dolphin_5.jpg	2.0	1.0	Marine_creatures	Living_Things	427.55	32.0	glimpse	0
428.4	0.85	0.5203013420104979	0.2603130042552948	0.0	2.0	dolphin	'nV_V'	dolphin_5.jpg	2.0	1.0	Marine_creatures	Living_Things	428.4	32.0	glimpse	0
429.25	0.85	0.5203013420104979	0.2603130042552948	0.0	2.0	dolphin	'nV_V'	dolphin_5.jpg	2.0	1.0	Marine_creatures	Living_Things	429.25	32.0	glimpse	0
430.1	0.85	0.5203013420104979	0.2603130042552948	0.0	2.0	dolphin	'nV_V'	dolphin_5.jpg	2.0	1.0	Marine_creatures	Living_Things	430.1	32.0	glimpse	0
430.95	0.85	0.5203013420104979	0.2603130042552948	0.0	2.0	dolphin	'nV_V'	dolphin_5.jpg	2.0	1.0	Marine_creatures	Living_Things	430.95	32.0	glimpse	0
