onset	duration	RT_response	RT_visibility	correct	correctAns	labels	options	paths	probe_frame	response	subcategory	targets	time_coor	trials	visibility	volume_interest
0.0	0.85	0.0	0.0	0.0	0.0	n/a	n/a	n/a	0.0	0.0	n/a	n/a	0.0	0.0	n/a	0
0.85	0.85	0.0	0.0	0.0	0.0	n/a	n/a	n/a	0.0	0.0	n/a	n/a	0.85	0.0	n/a	0
1.7	0.85	0.5003027319908142	0.3102896213531494	0.0	2.0	tractor	'V_nV'	tractor_3.jpg	5.0	1.0	Vehicles	Nonliving_Things	1.7	1.0	unconscious	0
2.55	0.85	0.5003027319908142	0.3102896213531494	0.0	2.0	tractor	'V_nV'	tractor_3.jpg	5.0	1.0	Vehicles	Nonliving_Things	2.55	1.0	unconscious	0
3.4	0.85	0.5003027319908142	0.3102896213531494	0.0	2.0	tractor	'V_nV'	tractor_3.jpg	5.0	1.0	Vehicles	Nonliving_Things	3.4	1.0	unconscious	0
4.25	0.85	0.5003027319908142	0.3102896213531494	0.0	2.0	tractor	'V_nV'	tractor_3.jpg	5.0	1.0	Vehicles	Nonliving_Things	4.25	1.0	unconscious	0
5.1	0.85	0.5003027319908142	0.3102896213531494	0.0	2.0	tractor	'V_nV'	tractor_3.jpg	5.0	1.0	Vehicles	Nonliving_Things	5.1	1.0	unconscious	0
5.95	0.85	0.5003027319908142	0.3102896213531494	0.0	2.0	tractor	'V_nV'	tractor_3.jpg	5.0	1.0	Vehicles	Nonliving_Things	5.95	1.0	unconscious	0
6.8	0.85	0.5003027319908142	0.3102896213531494	0.0	2.0	tractor	'V_nV'	tractor_3.jpg	5.0	1.0	Vehicles	Nonliving_Things	6.8	1.0	unconscious	1
7.649999999999999	0.85	0.5003027319908142	0.3102896213531494	0.0	2.0	tractor	'V_nV'	tractor_3.jpg	5.0	1.0	Vehicles	Nonliving_Things	7.649999999999999	1.0	unconscious	1
8.5	0.85	0.5003027319908142	0.3102896213531494	0.0	2.0	tractor	'V_nV'	tractor_3.jpg	5.0	1.0	Vehicles	Nonliving_Things	8.5	1.0	unconscious	1
9.35	0.85	0.5003027319908142	0.3102896213531494	0.0	2.0	tractor	'V_nV'	tractor_3.jpg	5.0	1.0	Vehicles	Nonliving_Things	9.35	1.0	unconscious	1
10.2	0.85	0.5003027319908142	0.3102896213531494	0.0	2.0	tractor	'V_nV'	tractor_3.jpg	5.0	1.0	Vehicles	Nonliving_Things	10.2	1.0	unconscious	0
11.05	0.85	0.5003027319908142	0.3102896213531494	0.0	2.0	tractor	'V_nV'	tractor_3.jpg	5.0	1.0	Vehicles	Nonliving_Things	11.05	1.0	unconscious	0
11.9	0.85	0.5003027319908142	0.3102896213531494	0.0	2.0	tractor	'V_nV'	tractor_3.jpg	5.0	1.0	Vehicles	Nonliving_Things	11.9	1.0	unconscious	0
12.75	0.85	0.5003027319908142	0.3102896213531494	0.0	2.0	tractor	'V_nV'	tractor_3.jpg	5.0	1.0	Vehicles	Nonliving_Things	12.75	1.0	unconscious	0
13.6	0.85	0.5003027319908142	0.3102896213531494	0.0	2.0	tractor	'V_nV'	tractor_3.jpg	5.0	1.0	Vehicles	Nonliving_Things	13.6	1.0	unconscious	0
14.45	0.85	0.5003027319908142	0.3102896213531494	0.0	2.0	tractor	'V_nV'	tractor_3.jpg	5.0	1.0	Vehicles	Nonliving_Things	14.45	1.0	unconscious	0
15.3	0.85	0.5003027319908142	0.3102896213531494	0.0	2.0	tractor	'V_nV'	tractor_3.jpg	5.0	1.0	Vehicles	Nonliving_Things	15.3	1.0	unconscious	0
16.15	0.85	0.7003352046012878	0.1102985814213752	1.0	2.0	van	'V_nV'	van_4.jpg	8.0	2.0	Vehicles	Nonliving_Things	16.15	2.0	glimpse	0
17.0	0.85	0.7003352046012878	0.1102985814213752	1.0	2.0	van	'V_nV'	van_4.jpg	8.0	2.0	Vehicles	Nonliving_Things	17.0	2.0	glimpse	0
17.849999999999998	0.85	0.7003352046012878	0.1102985814213752	1.0	2.0	van	'V_nV'	van_4.jpg	8.0	2.0	Vehicles	Nonliving_Things	17.849999999999998	2.0	glimpse	0
18.7	0.85	0.7003352046012878	0.1102985814213752	1.0	2.0	van	'V_nV'	van_4.jpg	8.0	2.0	Vehicles	Nonliving_Things	18.7	2.0	glimpse	0
19.55	0.85	0.7003352046012878	0.1102985814213752	1.0	2.0	van	'V_nV'	van_4.jpg	8.0	2.0	Vehicles	Nonliving_Things	19.55	2.0	glimpse	0
20.4	0.85	0.7003352046012878	0.1102985814213752	1.0	2.0	van	'V_nV'	van_4.jpg	8.0	2.0	Vehicles	Nonliving_Things	20.4	2.0	glimpse	0
21.25	0.85	0.7003352046012878	0.1102985814213752	1.0	2.0	van	'V_nV'	van_4.jpg	8.0	2.0	Vehicles	Nonliving_Things	21.25	2.0	glimpse	1
22.1	0.85	0.7003352046012878	0.1102985814213752	1.0	2.0	van	'V_nV'	van_4.jpg	8.0	2.0	Vehicles	Nonliving_Things	22.1	2.0	glimpse	1
22.95	0.85	0.7003352046012878	0.1102985814213752	1.0	2.0	van	'V_nV'	van_4.jpg	8.0	2.0	Vehicles	Nonliving_Things	22.95	2.0	glimpse	1
23.8	0.85	0.7003352046012878	0.1102985814213752	1.0	2.0	van	'V_nV'	van_4.jpg	8.0	2.0	Vehicles	Nonliving_Things	23.8	2.0	glimpse	0
24.65	0.85	0.7003352046012878	0.1102985814213752	1.0	2.0	van	'V_nV'	van_4.jpg	8.0	2.0	Vehicles	Nonliving_Things	24.65	2.0	glimpse	0
25.5	0.85	0.7003352046012878	0.1102985814213752	1.0	2.0	van	'V_nV'	van_4.jpg	8.0	2.0	Vehicles	Nonliving_Things	25.5	2.0	glimpse	0
26.35	0.85	0.7003352046012878	0.1102985814213752	1.0	2.0	van	'V_nV'	van_4.jpg	8.0	2.0	Vehicles	Nonliving_Things	26.35	2.0	glimpse	0
27.2	0.85	0.7003352046012878	0.1102985814213752	1.0	2.0	van	'V_nV'	van_4.jpg	8.0	2.0	Vehicles	Nonliving_Things	27.2	2.0	glimpse	0
28.05	0.85	0.7003352046012878	0.1102985814213752	1.0	2.0	van	'V_nV'	van_4.jpg	8.0	2.0	Vehicles	Nonliving_Things	28.05	2.0	glimpse	0
28.9	0.85	0.8303004503250122	0.2903175055980682	1.0	1.0	horse	'V_nV'	horse_0.jpg	7.0	1.0	Animals	Living_Things	28.9	3.0	glimpse	0
29.75	0.85	0.8303004503250122	0.2903175055980682	1.0	1.0	horse	'V_nV'	horse_0.jpg	7.0	1.0	Animals	Living_Things	29.75	3.0	glimpse	0
30.6	0.85	0.8303004503250122	0.2903175055980682	1.0	1.0	horse	'V_nV'	horse_0.jpg	7.0	1.0	Animals	Living_Things	30.6	3.0	glimpse	0
31.45	0.85	0.8303004503250122	0.2903175055980682	1.0	1.0	horse	'V_nV'	horse_0.jpg	7.0	1.0	Animals	Living_Things	31.45	3.0	glimpse	0
32.3	0.85	0.8303004503250122	0.2903175055980682	1.0	1.0	horse	'V_nV'	horse_0.jpg	7.0	1.0	Animals	Living_Things	32.3	3.0	glimpse	0
33.15	0.85	0.8303004503250122	0.2903175055980682	1.0	1.0	horse	'V_nV'	horse_0.jpg	7.0	1.0	Animals	Living_Things	33.15	3.0	glimpse	0
34.0	0.85	0.8303004503250122	0.2903175055980682	1.0	1.0	horse	'V_nV'	horse_0.jpg	7.0	1.0	Animals	Living_Things	34.0	3.0	glimpse	1
34.85	0.85	0.8303004503250122	0.2903175055980682	1.0	1.0	horse	'V_nV'	horse_0.jpg	7.0	1.0	Animals	Living_Things	34.85	3.0	glimpse	1
35.7	0.85	0.8303004503250122	0.2903175055980682	1.0	1.0	horse	'V_nV'	horse_0.jpg	7.0	1.0	Animals	Living_Things	35.7	3.0	glimpse	1
36.55	0.85	0.8303004503250122	0.2903175055980682	1.0	1.0	horse	'V_nV'	horse_0.jpg	7.0	1.0	Animals	Living_Things	36.55	3.0	glimpse	1
37.4	0.85	0.8303004503250122	0.2903175055980682	1.0	1.0	horse	'V_nV'	horse_0.jpg	7.0	1.0	Animals	Living_Things	37.4	3.0	glimpse	0
38.25	0.85	0.8303004503250122	0.2903175055980682	1.0	1.0	horse	'V_nV'	horse_0.jpg	7.0	1.0	Animals	Living_Things	38.25	3.0	glimpse	0
39.1	0.85	0.8303004503250122	0.2903175055980682	1.0	1.0	horse	'V_nV'	horse_0.jpg	7.0	1.0	Animals	Living_Things	39.1	3.0	glimpse	0
39.95	0.85	0.8303004503250122	0.2903175055980682	1.0	1.0	horse	'V_nV'	horse_0.jpg	7.0	1.0	Animals	Living_Things	39.95	3.0	glimpse	0
40.8	0.85	0.8303004503250122	0.2903175055980682	1.0	1.0	horse	'V_nV'	horse_0.jpg	7.0	1.0	Animals	Living_Things	40.8	3.0	glimpse	0
41.65	0.85	0.8303004503250122	0.2903175055980682	1.0	1.0	horse	'V_nV'	horse_0.jpg	7.0	1.0	Animals	Living_Things	41.65	3.0	glimpse	0
42.5	0.85	0.7203028202056885	0.3103345930576324	1.0	2.0	wardrobe	'V_nV'	wardrobe_20.jpg	6.0	2.0	Furniture	Nonliving_Things	42.5	4.0	glimpse	0
43.35	0.85	0.7203028202056885	0.3103345930576324	1.0	2.0	wardrobe	'V_nV'	wardrobe_20.jpg	6.0	2.0	Furniture	Nonliving_Things	43.35	4.0	glimpse	0
44.2	0.85	0.7203028202056885	0.3103345930576324	1.0	2.0	wardrobe	'V_nV'	wardrobe_20.jpg	6.0	2.0	Furniture	Nonliving_Things	44.2	4.0	glimpse	0
45.05	0.85	0.7203028202056885	0.3103345930576324	1.0	2.0	wardrobe	'V_nV'	wardrobe_20.jpg	6.0	2.0	Furniture	Nonliving_Things	45.05	4.0	glimpse	0
45.9	0.85	0.7203028202056885	0.3103345930576324	1.0	2.0	wardrobe	'V_nV'	wardrobe_20.jpg	6.0	2.0	Furniture	Nonliving_Things	45.9	4.0	glimpse	0
46.75	0.85	0.7203028202056885	0.3103345930576324	1.0	2.0	wardrobe	'V_nV'	wardrobe_20.jpg	6.0	2.0	Furniture	Nonliving_Things	46.75	4.0	glimpse	0
47.6	0.85	0.7203028202056885	0.3103345930576324	1.0	2.0	wardrobe	'V_nV'	wardrobe_20.jpg	6.0	2.0	Furniture	Nonliving_Things	47.6	4.0	glimpse	1
48.45	0.85	0.7203028202056885	0.3103345930576324	1.0	2.0	wardrobe	'V_nV'	wardrobe_20.jpg	6.0	2.0	Furniture	Nonliving_Things	48.45	4.0	glimpse	1
49.3	0.85	0.7203028202056885	0.3103345930576324	1.0	2.0	wardrobe	'V_nV'	wardrobe_20.jpg	6.0	2.0	Furniture	Nonliving_Things	49.3	4.0	glimpse	1
50.15	0.85	0.7203028202056885	0.3103345930576324	1.0	2.0	wardrobe	'V_nV'	wardrobe_20.jpg	6.0	2.0	Furniture	Nonliving_Things	50.15	4.0	glimpse	1
51.0	0.85	0.7203028202056885	0.3103345930576324	1.0	2.0	wardrobe	'V_nV'	wardrobe_20.jpg	6.0	2.0	Furniture	Nonliving_Things	51.0	4.0	glimpse	0
51.85	0.85	0.7203028202056885	0.3103345930576324	1.0	2.0	wardrobe	'V_nV'	wardrobe_20.jpg	6.0	2.0	Furniture	Nonliving_Things	51.85	4.0	glimpse	0
52.7	0.85	0.7203028202056885	0.3103345930576324	1.0	2.0	wardrobe	'V_nV'	wardrobe_20.jpg	6.0	2.0	Furniture	Nonliving_Things	52.7	4.0	glimpse	0
53.55	0.85	0.7203028202056885	0.3103345930576324	1.0	2.0	wardrobe	'V_nV'	wardrobe_20.jpg	6.0	2.0	Furniture	Nonliving_Things	53.55	4.0	glimpse	0
54.4	0.85	0.7203028202056885	0.3103345930576324	1.0	2.0	wardrobe	'V_nV'	wardrobe_20.jpg	6.0	2.0	Furniture	Nonliving_Things	54.4	4.0	glimpse	0
55.25	0.85	0.7203028202056885	0.3103345930576324	1.0	2.0	wardrobe	'V_nV'	wardrobe_20.jpg	6.0	2.0	Furniture	Nonliving_Things	55.25	4.0	glimpse	0
56.1	0.85	0.7203028202056885	0.3103345930576324	1.0	2.0	wardrobe	'V_nV'	wardrobe_20.jpg	6.0	2.0	Furniture	Nonliving_Things	56.1	4.0	glimpse	0
56.95	0.85	0.5303429365158081	0.4703176021575928	1.0	1.0	killer-whale	'V_nV'	killer-whale_4.jpg	5.0	1.0	Marine_creatures	Living_Things	56.95	5.0	glimpse	0
57.8	0.85	0.5303429365158081	0.4703176021575928	1.0	1.0	killer-whale	'V_nV'	killer-whale_4.jpg	5.0	1.0	Marine_creatures	Living_Things	57.8	5.0	glimpse	0
58.65	0.85	0.5303429365158081	0.4703176021575928	1.0	1.0	killer-whale	'V_nV'	killer-whale_4.jpg	5.0	1.0	Marine_creatures	Living_Things	58.65	5.0	glimpse	0
59.5	0.85	0.5303429365158081	0.4703176021575928	1.0	1.0	killer-whale	'V_nV'	killer-whale_4.jpg	5.0	1.0	Marine_creatures	Living_Things	59.5	5.0	glimpse	0
60.35	0.85	0.5303429365158081	0.4703176021575928	1.0	1.0	killer-whale	'V_nV'	killer-whale_4.jpg	5.0	1.0	Marine_creatures	Living_Things	60.35	5.0	glimpse	0
61.2	0.85	0.5303429365158081	0.4703176021575928	1.0	1.0	killer-whale	'V_nV'	killer-whale_4.jpg	5.0	1.0	Marine_creatures	Living_Things	61.2	5.0	glimpse	0
62.05	0.85	0.5303429365158081	0.4703176021575928	1.0	1.0	killer-whale	'V_nV'	killer-whale_4.jpg	5.0	1.0	Marine_creatures	Living_Things	62.05	5.0	glimpse	1
62.9	0.85	0.5303429365158081	0.4703176021575928	1.0	1.0	killer-whale	'V_nV'	killer-whale_4.jpg	5.0	1.0	Marine_creatures	Living_Things	62.9	5.0	glimpse	1
63.75	0.85	0.5303429365158081	0.4703176021575928	1.0	1.0	killer-whale	'V_nV'	killer-whale_4.jpg	5.0	1.0	Marine_creatures	Living_Things	63.75	5.0	glimpse	1
64.6	0.85	0.5303429365158081	0.4703176021575928	1.0	1.0	killer-whale	'V_nV'	killer-whale_4.jpg	5.0	1.0	Marine_creatures	Living_Things	64.6	5.0	glimpse	1
65.45	0.85	0.5303429365158081	0.4703176021575928	1.0	1.0	killer-whale	'V_nV'	killer-whale_4.jpg	5.0	1.0	Marine_creatures	Living_Things	65.45	5.0	glimpse	0
66.3	0.85	0.5303429365158081	0.4703176021575928	1.0	1.0	killer-whale	'V_nV'	killer-whale_4.jpg	5.0	1.0	Marine_creatures	Living_Things	66.3	5.0	glimpse	0
67.14999999999999	0.85	0.5303429365158081	0.4703176021575928	1.0	1.0	killer-whale	'V_nV'	killer-whale_4.jpg	5.0	1.0	Marine_creatures	Living_Things	67.14999999999999	5.0	glimpse	0
68.0	0.85	0.5303429365158081	0.4703176021575928	1.0	1.0	killer-whale	'V_nV'	killer-whale_4.jpg	5.0	1.0	Marine_creatures	Living_Things	68.0	5.0	glimpse	0
68.85	0.85	0.5303429365158081	0.4703176021575928	1.0	1.0	killer-whale	'V_nV'	killer-whale_4.jpg	5.0	1.0	Marine_creatures	Living_Things	68.85	5.0	glimpse	0
69.7	0.85	0.8201237916946411	0.2402960062026977	0.0	2.0	rooster	'nV_V'	rooster_15.jpg	4.0	1.0	Birds	Living_Things	69.7	6.0	unconscious	0
70.55	0.85	0.8201237916946411	0.2402960062026977	0.0	2.0	rooster	'nV_V'	rooster_15.jpg	4.0	1.0	Birds	Living_Things	70.55	6.0	unconscious	0
71.39999999999999	0.85	0.8201237916946411	0.2402960062026977	0.0	2.0	rooster	'nV_V'	rooster_15.jpg	4.0	1.0	Birds	Living_Things	71.39999999999999	6.0	unconscious	0
72.25	0.85	0.8201237916946411	0.2402960062026977	0.0	2.0	rooster	'nV_V'	rooster_15.jpg	4.0	1.0	Birds	Living_Things	72.25	6.0	unconscious	0
73.1	0.85	0.8201237916946411	0.2402960062026977	0.0	2.0	rooster	'nV_V'	rooster_15.jpg	4.0	1.0	Birds	Living_Things	73.1	6.0	unconscious	0
73.95	0.85	0.8201237916946411	0.2402960062026977	0.0	2.0	rooster	'nV_V'	rooster_15.jpg	4.0	1.0	Birds	Living_Things	73.95	6.0	unconscious	0
74.8	0.85	0.8201237916946411	0.2402960062026977	0.0	2.0	rooster	'nV_V'	rooster_15.jpg	4.0	1.0	Birds	Living_Things	74.8	6.0	unconscious	1
75.64999999999999	0.85	0.8201237916946411	0.2402960062026977	0.0	2.0	rooster	'nV_V'	rooster_15.jpg	4.0	1.0	Birds	Living_Things	75.64999999999999	6.0	unconscious	1
76.5	0.85	0.8201237916946411	0.2402960062026977	0.0	2.0	rooster	'nV_V'	rooster_15.jpg	4.0	1.0	Birds	Living_Things	76.5	6.0	unconscious	1
77.35	0.85	0.8201237916946411	0.2402960062026977	0.0	2.0	rooster	'nV_V'	rooster_15.jpg	4.0	1.0	Birds	Living_Things	77.35	6.0	unconscious	0
78.2	0.85	0.8201237916946411	0.2402960062026977	0.0	2.0	rooster	'nV_V'	rooster_15.jpg	4.0	1.0	Birds	Living_Things	78.2	6.0	unconscious	0
79.05	0.85	0.8201237916946411	0.2402960062026977	0.0	2.0	rooster	'nV_V'	rooster_15.jpg	4.0	1.0	Birds	Living_Things	79.05	6.0	unconscious	0
79.89999999999999	0.85	0.8201237916946411	0.2402960062026977	0.0	2.0	rooster	'nV_V'	rooster_15.jpg	4.0	1.0	Birds	Living_Things	79.89999999999999	6.0	unconscious	0
80.75	0.85	0.8201237916946411	0.2402960062026977	0.0	2.0	rooster	'nV_V'	rooster_15.jpg	4.0	1.0	Birds	Living_Things	80.75	6.0	unconscious	0
81.6	0.85	1.4402881860733032	0.630297064781189	0.0	1.0	trumpet	'nV_V'	trumpet_1.jpg	7.0	2.0	Musical_Inst	Nonliving_Things	81.6	7.0	glimpse	0
82.45	0.85	1.4402881860733032	0.630297064781189	0.0	1.0	trumpet	'nV_V'	trumpet_1.jpg	7.0	2.0	Musical_Inst	Nonliving_Things	82.45	7.0	glimpse	0
83.3	0.85	1.4402881860733032	0.630297064781189	0.0	1.0	trumpet	'nV_V'	trumpet_1.jpg	7.0	2.0	Musical_Inst	Nonliving_Things	83.3	7.0	glimpse	0
84.14999999999999	0.85	1.4402881860733032	0.630297064781189	0.0	1.0	trumpet	'nV_V'	trumpet_1.jpg	7.0	2.0	Musical_Inst	Nonliving_Things	84.14999999999999	7.0	glimpse	0
85.0	0.85	1.4402881860733032	0.630297064781189	0.0	1.0	trumpet	'nV_V'	trumpet_1.jpg	7.0	2.0	Musical_Inst	Nonliving_Things	85.0	7.0	glimpse	0
85.85	0.85	1.4402881860733032	0.630297064781189	0.0	1.0	trumpet	'nV_V'	trumpet_1.jpg	7.0	2.0	Musical_Inst	Nonliving_Things	85.85	7.0	glimpse	0
86.7	0.85	1.4402881860733032	0.630297064781189	0.0	1.0	trumpet	'nV_V'	trumpet_1.jpg	7.0	2.0	Musical_Inst	Nonliving_Things	86.7	7.0	glimpse	0
87.55	0.85	1.4402881860733032	0.630297064781189	0.0	1.0	trumpet	'nV_V'	trumpet_1.jpg	7.0	2.0	Musical_Inst	Nonliving_Things	87.55	7.0	glimpse	1
88.39999999999999	0.85	1.4402881860733032	0.630297064781189	0.0	1.0	trumpet	'nV_V'	trumpet_1.jpg	7.0	2.0	Musical_Inst	Nonliving_Things	88.39999999999999	7.0	glimpse	1
89.25	0.85	1.4402881860733032	0.630297064781189	0.0	1.0	trumpet	'nV_V'	trumpet_1.jpg	7.0	2.0	Musical_Inst	Nonliving_Things	89.25	7.0	glimpse	1
90.1	0.85	1.4402881860733032	0.630297064781189	0.0	1.0	trumpet	'nV_V'	trumpet_1.jpg	7.0	2.0	Musical_Inst	Nonliving_Things	90.1	7.0	glimpse	0
90.95	0.85	1.4402881860733032	0.630297064781189	0.0	1.0	trumpet	'nV_V'	trumpet_1.jpg	7.0	2.0	Musical_Inst	Nonliving_Things	90.95	7.0	glimpse	0
91.8	0.85	1.4402881860733032	0.630297064781189	0.0	1.0	trumpet	'nV_V'	trumpet_1.jpg	7.0	2.0	Musical_Inst	Nonliving_Things	91.8	7.0	glimpse	0
92.65	0.85	1.4402881860733032	0.630297064781189	0.0	1.0	trumpet	'nV_V'	trumpet_1.jpg	7.0	2.0	Musical_Inst	Nonliving_Things	92.65	7.0	glimpse	0
93.5	0.85	1.4402881860733032	0.630297064781189	0.0	1.0	trumpet	'nV_V'	trumpet_1.jpg	7.0	2.0	Musical_Inst	Nonliving_Things	93.5	7.0	glimpse	0
94.35	0.85	1.2202914953231812	0.3402922749519348	0.0	2.0	goldfinch	'nV_V'	goldfinch_12.jpg	6.0	1.0	Birds	Living_Things	94.35	8.0	unconscious	0
95.2	0.85	1.2202914953231812	0.3402922749519348	0.0	2.0	goldfinch	'nV_V'	goldfinch_12.jpg	6.0	1.0	Birds	Living_Things	95.2	8.0	unconscious	0
96.05	0.85	1.2202914953231812	0.3402922749519348	0.0	2.0	goldfinch	'nV_V'	goldfinch_12.jpg	6.0	1.0	Birds	Living_Things	96.05	8.0	unconscious	0
96.9	0.85	1.2202914953231812	0.3402922749519348	0.0	2.0	goldfinch	'nV_V'	goldfinch_12.jpg	6.0	1.0	Birds	Living_Things	96.9	8.0	unconscious	0
97.75	0.85	1.2202914953231812	0.3402922749519348	0.0	2.0	goldfinch	'nV_V'	goldfinch_12.jpg	6.0	1.0	Birds	Living_Things	97.75	8.0	unconscious	0
98.6	0.85	1.2202914953231812	0.3402922749519348	0.0	2.0	goldfinch	'nV_V'	goldfinch_12.jpg	6.0	1.0	Birds	Living_Things	98.6	8.0	unconscious	0
99.45	0.85	1.2202914953231812	0.3402922749519348	0.0	2.0	goldfinch	'nV_V'	goldfinch_12.jpg	6.0	1.0	Birds	Living_Things	99.45	8.0	unconscious	1
100.3	0.85	1.2202914953231812	0.3402922749519348	0.0	2.0	goldfinch	'nV_V'	goldfinch_12.jpg	6.0	1.0	Birds	Living_Things	100.3	8.0	unconscious	1
101.15	0.85	1.2202914953231812	0.3402922749519348	0.0	2.0	goldfinch	'nV_V'	goldfinch_12.jpg	6.0	1.0	Birds	Living_Things	101.15	8.0	unconscious	1
102.0	0.85	1.2202914953231812	0.3402922749519348	0.0	2.0	goldfinch	'nV_V'	goldfinch_12.jpg	6.0	1.0	Birds	Living_Things	102.0	8.0	unconscious	1
102.85	0.85	1.2202914953231812	0.3402922749519348	0.0	2.0	goldfinch	'nV_V'	goldfinch_12.jpg	6.0	1.0	Birds	Living_Things	102.85	8.0	unconscious	0
103.7	0.85	1.2202914953231812	0.3402922749519348	0.0	2.0	goldfinch	'nV_V'	goldfinch_12.jpg	6.0	1.0	Birds	Living_Things	103.7	8.0	unconscious	0
104.55	0.85	1.2202914953231812	0.3402922749519348	0.0	2.0	goldfinch	'nV_V'	goldfinch_12.jpg	6.0	1.0	Birds	Living_Things	104.55	8.0	unconscious	0
105.4	0.85	1.2202914953231812	0.3402922749519348	0.0	2.0	goldfinch	'nV_V'	goldfinch_12.jpg	6.0	1.0	Birds	Living_Things	105.4	8.0	unconscious	0
106.25	0.85	1.2202914953231812	0.3402922749519348	0.0	2.0	goldfinch	'nV_V'	goldfinch_12.jpg	6.0	1.0	Birds	Living_Things	106.25	8.0	unconscious	0
107.1	0.85	0.6300925016403198	0.3402963876724243	1.0	2.0	lobster	'nV_V'	lobster_12.jpg	9.0	2.0	Marine_creatures	Living_Things	107.1	9.0	glimpse	0
107.95	0.85	0.6300925016403198	0.3402963876724243	1.0	2.0	lobster	'nV_V'	lobster_12.jpg	9.0	2.0	Marine_creatures	Living_Things	107.95	9.0	glimpse	0
108.8	0.85	0.6300925016403198	0.3402963876724243	1.0	2.0	lobster	'nV_V'	lobster_12.jpg	9.0	2.0	Marine_creatures	Living_Things	108.8	9.0	glimpse	0
109.65	0.85	0.6300925016403198	0.3402963876724243	1.0	2.0	lobster	'nV_V'	lobster_12.jpg	9.0	2.0	Marine_creatures	Living_Things	109.65	9.0	glimpse	0
110.5	0.85	0.6300925016403198	0.3402963876724243	1.0	2.0	lobster	'nV_V'	lobster_12.jpg	9.0	2.0	Marine_creatures	Living_Things	110.5	9.0	glimpse	0
111.35	0.85	0.6300925016403198	0.3402963876724243	1.0	2.0	lobster	'nV_V'	lobster_12.jpg	9.0	2.0	Marine_creatures	Living_Things	111.35	9.0	glimpse	0
112.2	0.85	0.6300925016403198	0.3402963876724243	1.0	2.0	lobster	'nV_V'	lobster_12.jpg	9.0	2.0	Marine_creatures	Living_Things	112.2	9.0	glimpse	0
113.05	0.85	0.6300925016403198	0.3402963876724243	1.0	2.0	lobster	'nV_V'	lobster_12.jpg	9.0	2.0	Marine_creatures	Living_Things	113.05	9.0	glimpse	1
113.9	0.85	0.6300925016403198	0.3402963876724243	1.0	2.0	lobster	'nV_V'	lobster_12.jpg	9.0	2.0	Marine_creatures	Living_Things	113.9	9.0	glimpse	1
114.75	0.85	0.6300925016403198	0.3402963876724243	1.0	2.0	lobster	'nV_V'	lobster_12.jpg	9.0	2.0	Marine_creatures	Living_Things	114.75	9.0	glimpse	1
115.6	0.85	0.6300925016403198	0.3402963876724243	1.0	2.0	lobster	'nV_V'	lobster_12.jpg	9.0	2.0	Marine_creatures	Living_Things	115.6	9.0	glimpse	0
116.45	0.85	0.6300925016403198	0.3402963876724243	1.0	2.0	lobster	'nV_V'	lobster_12.jpg	9.0	2.0	Marine_creatures	Living_Things	116.45	9.0	glimpse	0
117.3	0.85	0.6300925016403198	0.3402963876724243	1.0	2.0	lobster	'nV_V'	lobster_12.jpg	9.0	2.0	Marine_creatures	Living_Things	117.3	9.0	glimpse	0
118.15	0.85	0.6300925016403198	0.3402963876724243	1.0	2.0	lobster	'nV_V'	lobster_12.jpg	9.0	2.0	Marine_creatures	Living_Things	118.15	9.0	glimpse	0
119.0	0.85	0.6300925016403198	0.3402963876724243	1.0	2.0	lobster	'nV_V'	lobster_12.jpg	9.0	2.0	Marine_creatures	Living_Things	119.0	9.0	glimpse	0
119.85	0.85	0.6002861261367798	0.2602519392967224	1.0	1.0	whale	'V_nV'	whale_12.jpg	8.0	1.0	Marine_creatures	Living_Things	119.85	10.0	glimpse	0
120.7	0.85	0.6002861261367798	0.2602519392967224	1.0	1.0	whale	'V_nV'	whale_12.jpg	8.0	1.0	Marine_creatures	Living_Things	120.7	10.0	glimpse	0
121.55	0.85	0.6002861261367798	0.2602519392967224	1.0	1.0	whale	'V_nV'	whale_12.jpg	8.0	1.0	Marine_creatures	Living_Things	121.55	10.0	glimpse	0
122.4	0.85	0.6002861261367798	0.2602519392967224	1.0	1.0	whale	'V_nV'	whale_12.jpg	8.0	1.0	Marine_creatures	Living_Things	122.4	10.0	glimpse	0
123.25	0.85	0.6002861261367798	0.2602519392967224	1.0	1.0	whale	'V_nV'	whale_12.jpg	8.0	1.0	Marine_creatures	Living_Things	123.25	10.0	glimpse	0
124.1	0.85	0.6002861261367798	0.2602519392967224	1.0	1.0	whale	'V_nV'	whale_12.jpg	8.0	1.0	Marine_creatures	Living_Things	124.1	10.0	glimpse	0
124.95	0.85	0.6002861261367798	0.2602519392967224	1.0	1.0	whale	'V_nV'	whale_12.jpg	8.0	1.0	Marine_creatures	Living_Things	124.95	10.0	glimpse	1
125.8	0.85	0.6002861261367798	0.2602519392967224	1.0	1.0	whale	'V_nV'	whale_12.jpg	8.0	1.0	Marine_creatures	Living_Things	125.8	10.0	glimpse	1
126.65	0.85	0.6002861261367798	0.2602519392967224	1.0	1.0	whale	'V_nV'	whale_12.jpg	8.0	1.0	Marine_creatures	Living_Things	126.65	10.0	glimpse	1
127.5	0.85	0.6002861261367798	0.2602519392967224	1.0	1.0	whale	'V_nV'	whale_12.jpg	8.0	1.0	Marine_creatures	Living_Things	127.5	10.0	glimpse	1
128.35	0.85	0.6002861261367798	0.2602519392967224	1.0	1.0	whale	'V_nV'	whale_12.jpg	8.0	1.0	Marine_creatures	Living_Things	128.35	10.0	glimpse	0
129.2	0.85	0.6002861261367798	0.2602519392967224	1.0	1.0	whale	'V_nV'	whale_12.jpg	8.0	1.0	Marine_creatures	Living_Things	129.2	10.0	glimpse	0
130.04999999999998	0.85	0.6002861261367798	0.2602519392967224	1.0	1.0	whale	'V_nV'	whale_12.jpg	8.0	1.0	Marine_creatures	Living_Things	130.04999999999998	10.0	glimpse	0
130.9	0.85	0.6002861261367798	0.2602519392967224	1.0	1.0	whale	'V_nV'	whale_12.jpg	8.0	1.0	Marine_creatures	Living_Things	130.9	10.0	glimpse	0
131.75	0.85	0.6002861261367798	0.2602519392967224	1.0	1.0	whale	'V_nV'	whale_12.jpg	8.0	1.0	Marine_creatures	Living_Things	131.75	10.0	glimpse	0
132.6	0.85	0.6002861261367798	0.2602519392967224	1.0	1.0	whale	'V_nV'	whale_12.jpg	8.0	1.0	Marine_creatures	Living_Things	132.6	10.0	glimpse	0
133.45	0.85	0.6002861261367798	0.2602519392967224	1.0	1.0	whale	'V_nV'	whale_12.jpg	8.0	1.0	Marine_creatures	Living_Things	133.45	10.0	glimpse	0
134.29999999999998	0.85	0.6002861261367798	0.2602519392967224	1.0	1.0	whale	'V_nV'	whale_12.jpg	8.0	1.0	Marine_creatures	Living_Things	134.29999999999998	10.0	glimpse	0
135.15	0.85	0.960305154323578	0.3002974092960357	1.0	2.0	sofa	'V_nV'	sofa_11.jpg	7.0	2.0	Furniture	Nonliving_Things	135.15	11.0	glimpse	0
136.0	0.85	0.960305154323578	0.3002974092960357	1.0	2.0	sofa	'V_nV'	sofa_11.jpg	7.0	2.0	Furniture	Nonliving_Things	136.0	11.0	glimpse	0
136.85	0.85	0.960305154323578	0.3002974092960357	1.0	2.0	sofa	'V_nV'	sofa_11.jpg	7.0	2.0	Furniture	Nonliving_Things	136.85	11.0	glimpse	0
137.7	0.85	0.960305154323578	0.3002974092960357	1.0	2.0	sofa	'V_nV'	sofa_11.jpg	7.0	2.0	Furniture	Nonliving_Things	137.7	11.0	glimpse	0
138.54999999999998	0.85	0.960305154323578	0.3002974092960357	1.0	2.0	sofa	'V_nV'	sofa_11.jpg	7.0	2.0	Furniture	Nonliving_Things	138.54999999999998	11.0	glimpse	0
139.4	0.85	0.960305154323578	0.3002974092960357	1.0	2.0	sofa	'V_nV'	sofa_11.jpg	7.0	2.0	Furniture	Nonliving_Things	139.4	11.0	glimpse	0
140.25	0.85	0.960305154323578	0.3002974092960357	1.0	2.0	sofa	'V_nV'	sofa_11.jpg	7.0	2.0	Furniture	Nonliving_Things	140.25	11.0	glimpse	0
141.1	0.85	0.960305154323578	0.3002974092960357	1.0	2.0	sofa	'V_nV'	sofa_11.jpg	7.0	2.0	Furniture	Nonliving_Things	141.1	11.0	glimpse	1
141.95	0.85	0.960305154323578	0.3002974092960357	1.0	2.0	sofa	'V_nV'	sofa_11.jpg	7.0	2.0	Furniture	Nonliving_Things	141.95	11.0	glimpse	1
142.79999999999998	0.85	0.960305154323578	0.3002974092960357	1.0	2.0	sofa	'V_nV'	sofa_11.jpg	7.0	2.0	Furniture	Nonliving_Things	142.79999999999998	11.0	glimpse	1
143.65	0.85	0.960305154323578	0.3002974092960357	1.0	2.0	sofa	'V_nV'	sofa_11.jpg	7.0	2.0	Furniture	Nonliving_Things	143.65	11.0	glimpse	0
144.5	0.85	0.960305154323578	0.3002974092960357	1.0	2.0	sofa	'V_nV'	sofa_11.jpg	7.0	2.0	Furniture	Nonliving_Things	144.5	11.0	glimpse	0
145.35	0.85	0.960305154323578	0.3002974092960357	1.0	2.0	sofa	'V_nV'	sofa_11.jpg	7.0	2.0	Furniture	Nonliving_Things	145.35	11.0	glimpse	0
146.2	0.85	0.960305154323578	0.3002974092960357	1.0	2.0	sofa	'V_nV'	sofa_11.jpg	7.0	2.0	Furniture	Nonliving_Things	146.2	11.0	glimpse	0
147.04999999999998	0.85	0.960305154323578	0.3002974092960357	1.0	2.0	sofa	'V_nV'	sofa_11.jpg	7.0	2.0	Furniture	Nonliving_Things	147.04999999999998	11.0	glimpse	0
147.9	0.85	0.6303101778030396	0.4502941071987152	1.0	1.0	hippopotamus	'V_nV'	hippopotamus_4.jpg	6.0	1.0	Animals	Living_Things	147.9	12.0	conscious	0
148.75	0.85	0.6303101778030396	0.4502941071987152	1.0	1.0	hippopotamus	'V_nV'	hippopotamus_4.jpg	6.0	1.0	Animals	Living_Things	148.75	12.0	conscious	0
149.6	0.85	0.6303101778030396	0.4502941071987152	1.0	1.0	hippopotamus	'V_nV'	hippopotamus_4.jpg	6.0	1.0	Animals	Living_Things	149.6	12.0	conscious	0
150.45	0.85	0.6303101778030396	0.4502941071987152	1.0	1.0	hippopotamus	'V_nV'	hippopotamus_4.jpg	6.0	1.0	Animals	Living_Things	150.45	12.0	conscious	0
151.29999999999998	0.85	0.6303101778030396	0.4502941071987152	1.0	1.0	hippopotamus	'V_nV'	hippopotamus_4.jpg	6.0	1.0	Animals	Living_Things	151.29999999999998	12.0	conscious	0
152.15	0.85	0.6303101778030396	0.4502941071987152	1.0	1.0	hippopotamus	'V_nV'	hippopotamus_4.jpg	6.0	1.0	Animals	Living_Things	152.15	12.0	conscious	0
153.0	0.85	0.6303101778030396	0.4502941071987152	1.0	1.0	hippopotamus	'V_nV'	hippopotamus_4.jpg	6.0	1.0	Animals	Living_Things	153.0	12.0	conscious	1
153.85	0.85	0.6303101778030396	0.4502941071987152	1.0	1.0	hippopotamus	'V_nV'	hippopotamus_4.jpg	6.0	1.0	Animals	Living_Things	153.85	12.0	conscious	1
154.7	0.85	0.6303101778030396	0.4502941071987152	1.0	1.0	hippopotamus	'V_nV'	hippopotamus_4.jpg	6.0	1.0	Animals	Living_Things	154.7	12.0	conscious	1
155.54999999999998	0.85	0.6303101778030396	0.4502941071987152	1.0	1.0	hippopotamus	'V_nV'	hippopotamus_4.jpg	6.0	1.0	Animals	Living_Things	155.54999999999998	12.0	conscious	1
156.4	0.85	0.6303101778030396	0.4502941071987152	1.0	1.0	hippopotamus	'V_nV'	hippopotamus_4.jpg	6.0	1.0	Animals	Living_Things	156.4	12.0	conscious	0
157.25	0.85	0.6303101778030396	0.4502941071987152	1.0	1.0	hippopotamus	'V_nV'	hippopotamus_4.jpg	6.0	1.0	Animals	Living_Things	157.25	12.0	conscious	0
158.1	0.85	0.6303101778030396	0.4502941071987152	1.0	1.0	hippopotamus	'V_nV'	hippopotamus_4.jpg	6.0	1.0	Animals	Living_Things	158.1	12.0	conscious	0
158.95	0.85	0.6303101778030396	0.4502941071987152	1.0	1.0	hippopotamus	'V_nV'	hippopotamus_4.jpg	6.0	1.0	Animals	Living_Things	158.95	12.0	conscious	0
159.79999999999998	0.85	0.4602868854999542	0.7502487301826477	1.0	1.0	teapot	'nV_V'	teapot_23.jpg	4.0	1.0	Kitchen_Uten	Nonliving_Things	159.79999999999998	13.0	unconscious	0
160.65	0.85	0.4602868854999542	0.7502487301826477	1.0	1.0	teapot	'nV_V'	teapot_23.jpg	4.0	1.0	Kitchen_Uten	Nonliving_Things	160.65	13.0	unconscious	0
161.5	0.85	0.4602868854999542	0.7502487301826477	1.0	1.0	teapot	'nV_V'	teapot_23.jpg	4.0	1.0	Kitchen_Uten	Nonliving_Things	161.5	13.0	unconscious	0
162.35	0.85	0.4602868854999542	0.7502487301826477	1.0	1.0	teapot	'nV_V'	teapot_23.jpg	4.0	1.0	Kitchen_Uten	Nonliving_Things	162.35	13.0	unconscious	0
163.2	0.85	0.4602868854999542	0.7502487301826477	1.0	1.0	teapot	'nV_V'	teapot_23.jpg	4.0	1.0	Kitchen_Uten	Nonliving_Things	163.2	13.0	unconscious	0
164.04999999999998	0.85	0.4602868854999542	0.7502487301826477	1.0	1.0	teapot	'nV_V'	teapot_23.jpg	4.0	1.0	Kitchen_Uten	Nonliving_Things	164.04999999999998	13.0	unconscious	0
164.9	0.85	0.4602868854999542	0.7502487301826477	1.0	1.0	teapot	'nV_V'	teapot_23.jpg	4.0	1.0	Kitchen_Uten	Nonliving_Things	164.9	13.0	unconscious	0
165.75	0.85	0.4602868854999542	0.7502487301826477	1.0	1.0	teapot	'nV_V'	teapot_23.jpg	4.0	1.0	Kitchen_Uten	Nonliving_Things	165.75	13.0	unconscious	1
166.6	0.85	0.4602868854999542	0.7502487301826477	1.0	1.0	teapot	'nV_V'	teapot_23.jpg	4.0	1.0	Kitchen_Uten	Nonliving_Things	166.6	13.0	unconscious	1
167.45	0.85	0.4602868854999542	0.7502487301826477	1.0	1.0	teapot	'nV_V'	teapot_23.jpg	4.0	1.0	Kitchen_Uten	Nonliving_Things	167.45	13.0	unconscious	1
168.29999999999998	0.85	0.4602868854999542	0.7502487301826477	1.0	1.0	teapot	'nV_V'	teapot_23.jpg	4.0	1.0	Kitchen_Uten	Nonliving_Things	168.29999999999998	13.0	unconscious	0
169.15	0.85	0.4602868854999542	0.7502487301826477	1.0	1.0	teapot	'nV_V'	teapot_23.jpg	4.0	1.0	Kitchen_Uten	Nonliving_Things	169.15	13.0	unconscious	0
170.0	0.85	0.4602868854999542	0.7502487301826477	1.0	1.0	teapot	'nV_V'	teapot_23.jpg	4.0	1.0	Kitchen_Uten	Nonliving_Things	170.0	13.0	unconscious	0
170.85	0.85	0.4602868854999542	0.7502487301826477	1.0	1.0	teapot	'nV_V'	teapot_23.jpg	4.0	1.0	Kitchen_Uten	Nonliving_Things	170.85	13.0	unconscious	0
171.7	0.85	0.6903135180473328	0.3202914595603943	1.0	1.0	violin	'nV_V'	violin_12.jpg	7.0	1.0	Musical_Inst	Nonliving_Things	171.7	14.0	conscious	0
172.54999999999998	0.85	0.6903135180473328	0.3202914595603943	1.0	1.0	violin	'nV_V'	violin_12.jpg	7.0	1.0	Musical_Inst	Nonliving_Things	172.54999999999998	14.0	conscious	0
173.4	0.85	0.6903135180473328	0.3202914595603943	1.0	1.0	violin	'nV_V'	violin_12.jpg	7.0	1.0	Musical_Inst	Nonliving_Things	173.4	14.0	conscious	0
174.25	0.85	0.6903135180473328	0.3202914595603943	1.0	1.0	violin	'nV_V'	violin_12.jpg	7.0	1.0	Musical_Inst	Nonliving_Things	174.25	14.0	conscious	0
175.1	0.85	0.6903135180473328	0.3202914595603943	1.0	1.0	violin	'nV_V'	violin_12.jpg	7.0	1.0	Musical_Inst	Nonliving_Things	175.1	14.0	conscious	0
175.95	0.85	0.6903135180473328	0.3202914595603943	1.0	1.0	violin	'nV_V'	violin_12.jpg	7.0	1.0	Musical_Inst	Nonliving_Things	175.95	14.0	conscious	0
176.79999999999998	0.85	0.6903135180473328	0.3202914595603943	1.0	1.0	violin	'nV_V'	violin_12.jpg	7.0	1.0	Musical_Inst	Nonliving_Things	176.79999999999998	14.0	conscious	0
177.65	0.85	0.6903135180473328	0.3202914595603943	1.0	1.0	violin	'nV_V'	violin_12.jpg	7.0	1.0	Musical_Inst	Nonliving_Things	177.65	14.0	conscious	1
178.5	0.85	0.6903135180473328	0.3202914595603943	1.0	1.0	violin	'nV_V'	violin_12.jpg	7.0	1.0	Musical_Inst	Nonliving_Things	178.5	14.0	conscious	1
179.35	0.85	0.6903135180473328	0.3202914595603943	1.0	1.0	violin	'nV_V'	violin_12.jpg	7.0	1.0	Musical_Inst	Nonliving_Things	179.35	14.0	conscious	1
180.2	0.85	0.6903135180473328	0.3202914595603943	1.0	1.0	violin	'nV_V'	violin_12.jpg	7.0	1.0	Musical_Inst	Nonliving_Things	180.2	14.0	conscious	0
181.05	0.85	0.6903135180473328	0.3202914595603943	1.0	1.0	violin	'nV_V'	violin_12.jpg	7.0	1.0	Musical_Inst	Nonliving_Things	181.05	14.0	conscious	0
181.9	0.85	0.6903135180473328	0.3202914595603943	1.0	1.0	violin	'nV_V'	violin_12.jpg	7.0	1.0	Musical_Inst	Nonliving_Things	181.9	14.0	conscious	0
182.75	0.85	0.6903135180473328	0.3202914595603943	1.0	1.0	violin	'nV_V'	violin_12.jpg	7.0	1.0	Musical_Inst	Nonliving_Things	182.75	14.0	conscious	0
183.6	0.85	0.6903135180473328	0.3202914595603943	1.0	1.0	violin	'nV_V'	violin_12.jpg	7.0	1.0	Musical_Inst	Nonliving_Things	183.6	14.0	conscious	0
184.45	0.85	0.6903135180473328	0.3202914595603943	1.0	1.0	violin	'nV_V'	violin_12.jpg	7.0	1.0	Musical_Inst	Nonliving_Things	184.45	14.0	conscious	0
185.3	0.85	0.8202948570251465	0.2704244852066039	1.0	1.0	rocking-chair	'nV_V'	rocking-chair_4.jpg	4.0	1.0	Furniture	Nonliving_Things	185.3	15.0	glimpse	0
186.15	0.85	0.8202948570251465	0.2704244852066039	1.0	1.0	rocking-chair	'nV_V'	rocking-chair_4.jpg	4.0	1.0	Furniture	Nonliving_Things	186.15	15.0	glimpse	0
187.0	0.85	0.8202948570251465	0.2704244852066039	1.0	1.0	rocking-chair	'nV_V'	rocking-chair_4.jpg	4.0	1.0	Furniture	Nonliving_Things	187.0	15.0	glimpse	0
187.85	0.85	0.8202948570251465	0.2704244852066039	1.0	1.0	rocking-chair	'nV_V'	rocking-chair_4.jpg	4.0	1.0	Furniture	Nonliving_Things	187.85	15.0	glimpse	0
188.7	0.85	0.8202948570251465	0.2704244852066039	1.0	1.0	rocking-chair	'nV_V'	rocking-chair_4.jpg	4.0	1.0	Furniture	Nonliving_Things	188.7	15.0	glimpse	0
189.55	0.85	0.8202948570251465	0.2704244852066039	1.0	1.0	rocking-chair	'nV_V'	rocking-chair_4.jpg	4.0	1.0	Furniture	Nonliving_Things	189.55	15.0	glimpse	0
190.4	0.85	0.8202948570251465	0.2704244852066039	1.0	1.0	rocking-chair	'nV_V'	rocking-chair_4.jpg	4.0	1.0	Furniture	Nonliving_Things	190.4	15.0	glimpse	0
191.25	0.85	0.8202948570251465	0.2704244852066039	1.0	1.0	rocking-chair	'nV_V'	rocking-chair_4.jpg	4.0	1.0	Furniture	Nonliving_Things	191.25	15.0	glimpse	1
192.1	0.85	0.8202948570251465	0.2704244852066039	1.0	1.0	rocking-chair	'nV_V'	rocking-chair_4.jpg	4.0	1.0	Furniture	Nonliving_Things	192.1	15.0	glimpse	1
192.95	0.85	0.8202948570251465	0.2704244852066039	1.0	1.0	rocking-chair	'nV_V'	rocking-chair_4.jpg	4.0	1.0	Furniture	Nonliving_Things	192.95	15.0	glimpse	1
193.8	0.85	0.8202948570251465	0.2704244852066039	1.0	1.0	rocking-chair	'nV_V'	rocking-chair_4.jpg	4.0	1.0	Furniture	Nonliving_Things	193.8	15.0	glimpse	0
194.65	0.85	0.8202948570251465	0.2704244852066039	1.0	1.0	rocking-chair	'nV_V'	rocking-chair_4.jpg	4.0	1.0	Furniture	Nonliving_Things	194.65	15.0	glimpse	0
195.5	0.85	0.8202948570251465	0.2704244852066039	1.0	1.0	rocking-chair	'nV_V'	rocking-chair_4.jpg	4.0	1.0	Furniture	Nonliving_Things	195.5	15.0	glimpse	0
196.35	0.85	0.8202948570251465	0.2704244852066039	1.0	1.0	rocking-chair	'nV_V'	rocking-chair_4.jpg	4.0	1.0	Furniture	Nonliving_Things	196.35	15.0	glimpse	0
197.2	0.85	1.0803674459457395	n/a	1.0	1.0	small-saucepan	'nV_V'	small-saucepan_2.jpg	3.0	1.0	Kitchen_Uten	Nonliving_Things	197.2	16.0	missing data	0
198.05	0.85	1.0803674459457395	n/a	1.0	1.0	small-saucepan	'nV_V'	small-saucepan_2.jpg	3.0	1.0	Kitchen_Uten	Nonliving_Things	198.05	16.0	missing data	0
198.9	0.85	1.0803674459457395	n/a	1.0	1.0	small-saucepan	'nV_V'	small-saucepan_2.jpg	3.0	1.0	Kitchen_Uten	Nonliving_Things	198.9	16.0	missing data	0
199.75	0.85	1.0803674459457395	n/a	1.0	1.0	small-saucepan	'nV_V'	small-saucepan_2.jpg	3.0	1.0	Kitchen_Uten	Nonliving_Things	199.75	16.0	missing data	0
200.6	0.85	1.0803674459457395	n/a	1.0	1.0	small-saucepan	'nV_V'	small-saucepan_2.jpg	3.0	1.0	Kitchen_Uten	Nonliving_Things	200.6	16.0	missing data	0
201.45	0.85	1.0803674459457395	n/a	1.0	1.0	small-saucepan	'nV_V'	small-saucepan_2.jpg	3.0	1.0	Kitchen_Uten	Nonliving_Things	201.45	16.0	missing data	0
202.3	0.85	1.0803674459457395	n/a	1.0	1.0	small-saucepan	'nV_V'	small-saucepan_2.jpg	3.0	1.0	Kitchen_Uten	Nonliving_Things	202.3	16.0	missing data	0
203.15	0.85	1.0803674459457395	n/a	1.0	1.0	small-saucepan	'nV_V'	small-saucepan_2.jpg	3.0	1.0	Kitchen_Uten	Nonliving_Things	203.15	16.0	missing data	1
204.0	0.85	1.0803674459457395	n/a	1.0	1.0	small-saucepan	'nV_V'	small-saucepan_2.jpg	3.0	1.0	Kitchen_Uten	Nonliving_Things	204.0	16.0	missing data	1
204.85	0.85	1.0803674459457395	n/a	1.0	1.0	small-saucepan	'nV_V'	small-saucepan_2.jpg	3.0	1.0	Kitchen_Uten	Nonliving_Things	204.85	16.0	missing data	1
205.7	0.85	1.0803674459457395	n/a	1.0	1.0	small-saucepan	'nV_V'	small-saucepan_2.jpg	3.0	1.0	Kitchen_Uten	Nonliving_Things	205.7	16.0	missing data	0
206.55	0.85	1.0803674459457395	n/a	1.0	1.0	small-saucepan	'nV_V'	small-saucepan_2.jpg	3.0	1.0	Kitchen_Uten	Nonliving_Things	206.55	16.0	missing data	0
207.4	0.85	1.0803674459457395	n/a	1.0	1.0	small-saucepan	'nV_V'	small-saucepan_2.jpg	3.0	1.0	Kitchen_Uten	Nonliving_Things	207.4	16.0	missing data	0
208.25	0.85	1.0803674459457395	n/a	1.0	1.0	small-saucepan	'nV_V'	small-saucepan_2.jpg	3.0	1.0	Kitchen_Uten	Nonliving_Things	208.25	16.0	missing data	0
209.1	0.85	1.0803674459457395	n/a	1.0	1.0	small-saucepan	'nV_V'	small-saucepan_2.jpg	3.0	1.0	Kitchen_Uten	Nonliving_Things	209.1	16.0	missing data	0
209.95	0.85	1.0803674459457395	n/a	1.0	1.0	small-saucepan	'nV_V'	small-saucepan_2.jpg	3.0	1.0	Kitchen_Uten	Nonliving_Things	209.95	16.0	missing data	0
210.8	0.85	0.3504276573657989	0.4503675699234009	0.0	1.0	hummingbird	'V_nV'	hummingbird_14.jpg	3.0	2.0	Birds	Living_Things	210.8	17.0	unconscious	0
211.65	0.85	0.3504276573657989	0.4503675699234009	0.0	1.0	hummingbird	'V_nV'	hummingbird_14.jpg	3.0	2.0	Birds	Living_Things	211.65	17.0	unconscious	0
212.5	0.85	0.3504276573657989	0.4503675699234009	0.0	1.0	hummingbird	'V_nV'	hummingbird_14.jpg	3.0	2.0	Birds	Living_Things	212.5	17.0	unconscious	0
213.35	0.85	0.3504276573657989	0.4503675699234009	0.0	1.0	hummingbird	'V_nV'	hummingbird_14.jpg	3.0	2.0	Birds	Living_Things	213.35	17.0	unconscious	0
214.2	0.85	0.3504276573657989	0.4503675699234009	0.0	1.0	hummingbird	'V_nV'	hummingbird_14.jpg	3.0	2.0	Birds	Living_Things	214.2	17.0	unconscious	0
215.05	0.85	0.3504276573657989	0.4503675699234009	0.0	1.0	hummingbird	'V_nV'	hummingbird_14.jpg	3.0	2.0	Birds	Living_Things	215.05	17.0	unconscious	0
215.9	0.85	0.3504276573657989	0.4503675699234009	0.0	1.0	hummingbird	'V_nV'	hummingbird_14.jpg	3.0	2.0	Birds	Living_Things	215.9	17.0	unconscious	0
216.75	0.85	0.3504276573657989	0.4503675699234009	0.0	1.0	hummingbird	'V_nV'	hummingbird_14.jpg	3.0	2.0	Birds	Living_Things	216.75	17.0	unconscious	1
217.6	0.85	0.3504276573657989	0.4503675699234009	0.0	1.0	hummingbird	'V_nV'	hummingbird_14.jpg	3.0	2.0	Birds	Living_Things	217.6	17.0	unconscious	1
218.45	0.85	0.3504276573657989	0.4503675699234009	0.0	1.0	hummingbird	'V_nV'	hummingbird_14.jpg	3.0	2.0	Birds	Living_Things	218.45	17.0	unconscious	1
219.3	0.85	0.3504276573657989	0.4503675699234009	0.0	1.0	hummingbird	'V_nV'	hummingbird_14.jpg	3.0	2.0	Birds	Living_Things	219.3	17.0	unconscious	0
220.15	0.85	0.3504276573657989	0.4503675699234009	0.0	1.0	hummingbird	'V_nV'	hummingbird_14.jpg	3.0	2.0	Birds	Living_Things	220.15	17.0	unconscious	0
221.0	0.85	0.3504276573657989	0.4503675699234009	0.0	1.0	hummingbird	'V_nV'	hummingbird_14.jpg	3.0	2.0	Birds	Living_Things	221.0	17.0	unconscious	0
221.85	0.85	0.3504276573657989	0.4503675699234009	0.0	1.0	hummingbird	'V_nV'	hummingbird_14.jpg	3.0	2.0	Birds	Living_Things	221.85	17.0	unconscious	0
222.7	0.85	0.3504276573657989	0.4503675699234009	0.0	1.0	hummingbird	'V_nV'	hummingbird_14.jpg	3.0	2.0	Birds	Living_Things	222.7	17.0	unconscious	0
223.55	0.85	0.3504276573657989	0.4503675699234009	0.0	1.0	hummingbird	'V_nV'	hummingbird_14.jpg	3.0	2.0	Birds	Living_Things	223.55	17.0	unconscious	0
224.4	0.85	0.3504276573657989	0.4503675699234009	0.0	1.0	hummingbird	'V_nV'	hummingbird_14.jpg	3.0	2.0	Birds	Living_Things	224.4	17.0	unconscious	0
225.25	0.85	0.3504276573657989	0.4503675699234009	0.0	1.0	hummingbird	'V_nV'	hummingbird_14.jpg	3.0	2.0	Birds	Living_Things	225.25	17.0	unconscious	0
226.1	0.85	n/a	0.5901919007301331	0.0	2.0	goose	'nV_V'	goose_18.jpg	5.0	99.0	Birds	Living_Things	226.1	18.0	unconscious	0
226.95	0.85	n/a	0.5901919007301331	0.0	2.0	goose	'nV_V'	goose_18.jpg	5.0	99.0	Birds	Living_Things	226.95	18.0	unconscious	0
227.8	0.85	n/a	0.5901919007301331	0.0	2.0	goose	'nV_V'	goose_18.jpg	5.0	99.0	Birds	Living_Things	227.8	18.0	unconscious	0
228.65	0.85	n/a	0.5901919007301331	0.0	2.0	goose	'nV_V'	goose_18.jpg	5.0	99.0	Birds	Living_Things	228.65	18.0	unconscious	0
229.5	0.85	n/a	0.5901919007301331	0.0	2.0	goose	'nV_V'	goose_18.jpg	5.0	99.0	Birds	Living_Things	229.5	18.0	unconscious	0
230.35	0.85	n/a	0.5901919007301331	0.0	2.0	goose	'nV_V'	goose_18.jpg	5.0	99.0	Birds	Living_Things	230.35	18.0	unconscious	0
231.2	0.85	n/a	0.5901919007301331	0.0	2.0	goose	'nV_V'	goose_18.jpg	5.0	99.0	Birds	Living_Things	231.2	18.0	unconscious	1
232.05	0.85	n/a	0.5901919007301331	0.0	2.0	goose	'nV_V'	goose_18.jpg	5.0	99.0	Birds	Living_Things	232.05	18.0	unconscious	1
232.9	0.85	n/a	0.5901919007301331	0.0	2.0	goose	'nV_V'	goose_18.jpg	5.0	99.0	Birds	Living_Things	232.9	18.0	unconscious	1
233.75	0.85	n/a	0.5901919007301331	0.0	2.0	goose	'nV_V'	goose_18.jpg	5.0	99.0	Birds	Living_Things	233.75	18.0	unconscious	1
234.6	0.85	n/a	0.5901919007301331	0.0	2.0	goose	'nV_V'	goose_18.jpg	5.0	99.0	Birds	Living_Things	234.6	18.0	unconscious	0
235.45	0.85	n/a	0.5901919007301331	0.0	2.0	goose	'nV_V'	goose_18.jpg	5.0	99.0	Birds	Living_Things	235.45	18.0	unconscious	0
236.3	0.85	n/a	0.5901919007301331	0.0	2.0	goose	'nV_V'	goose_18.jpg	5.0	99.0	Birds	Living_Things	236.3	18.0	unconscious	0
237.15	0.85	n/a	0.5901919007301331	0.0	2.0	goose	'nV_V'	goose_18.jpg	5.0	99.0	Birds	Living_Things	237.15	18.0	unconscious	0
238.0	0.85	n/a	0.5901919007301331	0.0	2.0	goose	'nV_V'	goose_18.jpg	5.0	99.0	Birds	Living_Things	238.0	18.0	unconscious	0
238.85	0.85	0.7003008127212524	0.3602909743785858	1.0	1.0	train	'nV_V'	train_10.jpg	7.0	1.0	Vehicles	Nonliving_Things	238.85	19.0	glimpse	0
239.7	0.85	0.7003008127212524	0.3602909743785858	1.0	1.0	train	'nV_V'	train_10.jpg	7.0	1.0	Vehicles	Nonliving_Things	239.7	19.0	glimpse	0
240.55	0.85	0.7003008127212524	0.3602909743785858	1.0	1.0	train	'nV_V'	train_10.jpg	7.0	1.0	Vehicles	Nonliving_Things	240.55	19.0	glimpse	0
241.4	0.85	0.7003008127212524	0.3602909743785858	1.0	1.0	train	'nV_V'	train_10.jpg	7.0	1.0	Vehicles	Nonliving_Things	241.4	19.0	glimpse	0
242.25	0.85	0.7003008127212524	0.3602909743785858	1.0	1.0	train	'nV_V'	train_10.jpg	7.0	1.0	Vehicles	Nonliving_Things	242.25	19.0	glimpse	0
243.1	0.85	0.7003008127212524	0.3602909743785858	1.0	1.0	train	'nV_V'	train_10.jpg	7.0	1.0	Vehicles	Nonliving_Things	243.1	19.0	glimpse	0
243.95	0.85	0.7003008127212524	0.3602909743785858	1.0	1.0	train	'nV_V'	train_10.jpg	7.0	1.0	Vehicles	Nonliving_Things	243.95	19.0	glimpse	1
244.8	0.85	0.7003008127212524	0.3602909743785858	1.0	1.0	train	'nV_V'	train_10.jpg	7.0	1.0	Vehicles	Nonliving_Things	244.8	19.0	glimpse	1
245.65	0.85	0.7003008127212524	0.3602909743785858	1.0	1.0	train	'nV_V'	train_10.jpg	7.0	1.0	Vehicles	Nonliving_Things	245.65	19.0	glimpse	1
246.5	0.85	0.7003008127212524	0.3602909743785858	1.0	1.0	train	'nV_V'	train_10.jpg	7.0	1.0	Vehicles	Nonliving_Things	246.5	19.0	glimpse	0
247.35	0.85	0.7003008127212524	0.3602909743785858	1.0	1.0	train	'nV_V'	train_10.jpg	7.0	1.0	Vehicles	Nonliving_Things	247.35	19.0	glimpse	0
248.2	0.85	0.7003008127212524	0.3602909743785858	1.0	1.0	train	'nV_V'	train_10.jpg	7.0	1.0	Vehicles	Nonliving_Things	248.2	19.0	glimpse	0
249.05	0.85	0.7003008127212524	0.3602909743785858	1.0	1.0	train	'nV_V'	train_10.jpg	7.0	1.0	Vehicles	Nonliving_Things	249.05	19.0	glimpse	0
249.9	0.85	0.7003008127212524	0.3602909743785858	1.0	1.0	train	'nV_V'	train_10.jpg	7.0	1.0	Vehicles	Nonliving_Things	249.9	19.0	glimpse	0
250.75	0.85	1.0502668619155884	0.7402908802032471	1.0	2.0	pomfret	'nV_V'	pomfret_17.jpg	6.0	2.0	Marine_creatures	Living_Things	250.75	20.0	glimpse	0
251.6	0.85	1.0502668619155884	0.7402908802032471	1.0	2.0	pomfret	'nV_V'	pomfret_17.jpg	6.0	2.0	Marine_creatures	Living_Things	251.6	20.0	glimpse	0
252.45	0.85	1.0502668619155884	0.7402908802032471	1.0	2.0	pomfret	'nV_V'	pomfret_17.jpg	6.0	2.0	Marine_creatures	Living_Things	252.45	20.0	glimpse	0
253.3	0.85	1.0502668619155884	0.7402908802032471	1.0	2.0	pomfret	'nV_V'	pomfret_17.jpg	6.0	2.0	Marine_creatures	Living_Things	253.3	20.0	glimpse	0
254.15	0.85	1.0502668619155884	0.7402908802032471	1.0	2.0	pomfret	'nV_V'	pomfret_17.jpg	6.0	2.0	Marine_creatures	Living_Things	254.15	20.0	glimpse	0
255.0	0.85	1.0502668619155884	0.7402908802032471	1.0	2.0	pomfret	'nV_V'	pomfret_17.jpg	6.0	2.0	Marine_creatures	Living_Things	255.0	20.0	glimpse	0
255.85	0.85	1.0502668619155884	0.7402908802032471	1.0	2.0	pomfret	'nV_V'	pomfret_17.jpg	6.0	2.0	Marine_creatures	Living_Things	255.85	20.0	glimpse	0
256.7	0.85	1.0502668619155884	0.7402908802032471	1.0	2.0	pomfret	'nV_V'	pomfret_17.jpg	6.0	2.0	Marine_creatures	Living_Things	256.7	20.0	glimpse	1
257.55	0.85	1.0502668619155884	0.7402908802032471	1.0	2.0	pomfret	'nV_V'	pomfret_17.jpg	6.0	2.0	Marine_creatures	Living_Things	257.55	20.0	glimpse	1
258.4	0.85	1.0502668619155884	0.7402908802032471	1.0	2.0	pomfret	'nV_V'	pomfret_17.jpg	6.0	2.0	Marine_creatures	Living_Things	258.4	20.0	glimpse	1
259.25	0.85	1.0502668619155884	0.7402908802032471	1.0	2.0	pomfret	'nV_V'	pomfret_17.jpg	6.0	2.0	Marine_creatures	Living_Things	259.25	20.0	glimpse	0
260.1	0.85	1.0502668619155884	0.7402908802032471	1.0	2.0	pomfret	'nV_V'	pomfret_17.jpg	6.0	2.0	Marine_creatures	Living_Things	260.1	20.0	glimpse	0
260.95	0.85	1.0502668619155884	0.7402908802032471	1.0	2.0	pomfret	'nV_V'	pomfret_17.jpg	6.0	2.0	Marine_creatures	Living_Things	260.95	20.0	glimpse	0
261.8	0.85	1.0502668619155884	0.7402908802032471	1.0	2.0	pomfret	'nV_V'	pomfret_17.jpg	6.0	2.0	Marine_creatures	Living_Things	261.8	20.0	glimpse	0
262.65	0.85	1.0502668619155884	0.7402908802032471	1.0	2.0	pomfret	'nV_V'	pomfret_17.jpg	6.0	2.0	Marine_creatures	Living_Things	262.65	20.0	glimpse	0
263.5	0.85	1.4302917718887331	1.1802892684936523	1.0	2.0	ship	'V_nV'	ship_20.jpg	5.0	2.0	Vehicles	Nonliving_Things	263.5	21.0	glimpse	0
264.35	0.85	1.4302917718887331	1.1802892684936523	1.0	2.0	ship	'V_nV'	ship_20.jpg	5.0	2.0	Vehicles	Nonliving_Things	264.35	21.0	glimpse	0
265.2	0.85	1.4302917718887331	1.1802892684936523	1.0	2.0	ship	'V_nV'	ship_20.jpg	5.0	2.0	Vehicles	Nonliving_Things	265.2	21.0	glimpse	0
266.05	0.85	1.4302917718887331	1.1802892684936523	1.0	2.0	ship	'V_nV'	ship_20.jpg	5.0	2.0	Vehicles	Nonliving_Things	266.05	21.0	glimpse	0
266.9	0.85	1.4302917718887331	1.1802892684936523	1.0	2.0	ship	'V_nV'	ship_20.jpg	5.0	2.0	Vehicles	Nonliving_Things	266.9	21.0	glimpse	0
267.75	0.85	1.4302917718887331	1.1802892684936523	1.0	2.0	ship	'V_nV'	ship_20.jpg	5.0	2.0	Vehicles	Nonliving_Things	267.75	21.0	glimpse	0
268.6	0.85	1.4302917718887331	1.1802892684936523	1.0	2.0	ship	'V_nV'	ship_20.jpg	5.0	2.0	Vehicles	Nonliving_Things	268.6	21.0	glimpse	1
269.45	0.85	1.4302917718887331	1.1802892684936523	1.0	2.0	ship	'V_nV'	ship_20.jpg	5.0	2.0	Vehicles	Nonliving_Things	269.45	21.0	glimpse	1
270.3	0.85	1.4302917718887331	1.1802892684936523	1.0	2.0	ship	'V_nV'	ship_20.jpg	5.0	2.0	Vehicles	Nonliving_Things	270.3	21.0	glimpse	1
271.15	0.85	1.4302917718887331	1.1802892684936523	1.0	2.0	ship	'V_nV'	ship_20.jpg	5.0	2.0	Vehicles	Nonliving_Things	271.15	21.0	glimpse	1
272.0	0.85	1.4302917718887331	1.1802892684936523	1.0	2.0	ship	'V_nV'	ship_20.jpg	5.0	2.0	Vehicles	Nonliving_Things	272.0	21.0	glimpse	0
272.85	0.85	1.4302917718887331	1.1802892684936523	1.0	2.0	ship	'V_nV'	ship_20.jpg	5.0	2.0	Vehicles	Nonliving_Things	272.85	21.0	glimpse	0
273.7	0.85	1.4302917718887331	1.1802892684936523	1.0	2.0	ship	'V_nV'	ship_20.jpg	5.0	2.0	Vehicles	Nonliving_Things	273.7	21.0	glimpse	0
274.55	0.85	1.4302917718887331	1.1802892684936523	1.0	2.0	ship	'V_nV'	ship_20.jpg	5.0	2.0	Vehicles	Nonliving_Things	274.55	21.0	glimpse	0
275.4	0.85	0.930309236049652	0.2903089821338653	0.0	2.0	zebra	'nV_V'	zebra_9.jpg	4.0	1.0	Animals	Living_Things	275.4	22.0	unconscious	0
276.25	0.85	0.930309236049652	0.2903089821338653	0.0	2.0	zebra	'nV_V'	zebra_9.jpg	4.0	1.0	Animals	Living_Things	276.25	22.0	unconscious	0
277.1	0.85	0.930309236049652	0.2903089821338653	0.0	2.0	zebra	'nV_V'	zebra_9.jpg	4.0	1.0	Animals	Living_Things	277.1	22.0	unconscious	0
277.95	0.85	0.930309236049652	0.2903089821338653	0.0	2.0	zebra	'nV_V'	zebra_9.jpg	4.0	1.0	Animals	Living_Things	277.95	22.0	unconscious	0
278.8	0.85	0.930309236049652	0.2903089821338653	0.0	2.0	zebra	'nV_V'	zebra_9.jpg	4.0	1.0	Animals	Living_Things	278.8	22.0	unconscious	0
279.65	0.85	0.930309236049652	0.2903089821338653	0.0	2.0	zebra	'nV_V'	zebra_9.jpg	4.0	1.0	Animals	Living_Things	279.65	22.0	unconscious	0
280.5	0.85	0.930309236049652	0.2903089821338653	0.0	2.0	zebra	'nV_V'	zebra_9.jpg	4.0	1.0	Animals	Living_Things	280.5	22.0	unconscious	1
281.35	0.85	0.930309236049652	0.2903089821338653	0.0	2.0	zebra	'nV_V'	zebra_9.jpg	4.0	1.0	Animals	Living_Things	281.35	22.0	unconscious	1
282.2	0.85	0.930309236049652	0.2903089821338653	0.0	2.0	zebra	'nV_V'	zebra_9.jpg	4.0	1.0	Animals	Living_Things	282.2	22.0	unconscious	1
283.05	0.85	0.930309236049652	0.2903089821338653	0.0	2.0	zebra	'nV_V'	zebra_9.jpg	4.0	1.0	Animals	Living_Things	283.05	22.0	unconscious	1
283.9	0.85	0.930309236049652	0.2903089821338653	0.0	2.0	zebra	'nV_V'	zebra_9.jpg	4.0	1.0	Animals	Living_Things	283.9	22.0	unconscious	0
284.75	0.85	0.930309236049652	0.2903089821338653	0.0	2.0	zebra	'nV_V'	zebra_9.jpg	4.0	1.0	Animals	Living_Things	284.75	22.0	unconscious	0
285.6	0.85	0.930309236049652	0.2903089821338653	0.0	2.0	zebra	'nV_V'	zebra_9.jpg	4.0	1.0	Animals	Living_Things	285.6	22.0	unconscious	0
286.45	0.85	0.930309236049652	0.2903089821338653	0.0	2.0	zebra	'nV_V'	zebra_9.jpg	4.0	1.0	Animals	Living_Things	286.45	22.0	unconscious	0
287.3	0.85	0.930309236049652	0.2903089821338653	0.0	2.0	zebra	'nV_V'	zebra_9.jpg	4.0	1.0	Animals	Living_Things	287.3	22.0	unconscious	0
288.15	0.85	0.7503040432929993	0.3003103733062744	1.0	2.0	hen	'nV_V'	hen_0.jpg	6.0	2.0	Birds	Living_Things	288.15	23.0	unconscious	0
289.0	0.85	0.7503040432929993	0.3003103733062744	1.0	2.0	hen	'nV_V'	hen_0.jpg	6.0	2.0	Birds	Living_Things	289.0	23.0	unconscious	0
289.85	0.85	0.7503040432929993	0.3003103733062744	1.0	2.0	hen	'nV_V'	hen_0.jpg	6.0	2.0	Birds	Living_Things	289.85	23.0	unconscious	0
290.7	0.85	0.7503040432929993	0.3003103733062744	1.0	2.0	hen	'nV_V'	hen_0.jpg	6.0	2.0	Birds	Living_Things	290.7	23.0	unconscious	0
291.55	0.85	0.7503040432929993	0.3003103733062744	1.0	2.0	hen	'nV_V'	hen_0.jpg	6.0	2.0	Birds	Living_Things	291.55	23.0	unconscious	0
292.4	0.85	0.7503040432929993	0.3003103733062744	1.0	2.0	hen	'nV_V'	hen_0.jpg	6.0	2.0	Birds	Living_Things	292.4	23.0	unconscious	0
293.25	0.85	0.7503040432929993	0.3003103733062744	1.0	2.0	hen	'nV_V'	hen_0.jpg	6.0	2.0	Birds	Living_Things	293.25	23.0	unconscious	1
294.1	0.85	0.7503040432929993	0.3003103733062744	1.0	2.0	hen	'nV_V'	hen_0.jpg	6.0	2.0	Birds	Living_Things	294.1	23.0	unconscious	1
294.95	0.85	0.7503040432929993	0.3003103733062744	1.0	2.0	hen	'nV_V'	hen_0.jpg	6.0	2.0	Birds	Living_Things	294.95	23.0	unconscious	1
295.8	0.85	0.7503040432929993	0.3003103733062744	1.0	2.0	hen	'nV_V'	hen_0.jpg	6.0	2.0	Birds	Living_Things	295.8	23.0	unconscious	1
296.65	0.85	0.7503040432929993	0.3003103733062744	1.0	2.0	hen	'nV_V'	hen_0.jpg	6.0	2.0	Birds	Living_Things	296.65	23.0	unconscious	0
297.5	0.85	0.7503040432929993	0.3003103733062744	1.0	2.0	hen	'nV_V'	hen_0.jpg	6.0	2.0	Birds	Living_Things	297.5	23.0	unconscious	0
298.35	0.85	0.7503040432929993	0.3003103733062744	1.0	2.0	hen	'nV_V'	hen_0.jpg	6.0	2.0	Birds	Living_Things	298.35	23.0	unconscious	0
299.2	0.85	0.7503040432929993	0.3003103733062744	1.0	2.0	hen	'nV_V'	hen_0.jpg	6.0	2.0	Birds	Living_Things	299.2	23.0	unconscious	0
300.05	0.85	0.7503040432929993	0.3003103733062744	1.0	2.0	hen	'nV_V'	hen_0.jpg	6.0	2.0	Birds	Living_Things	300.05	23.0	unconscious	0
300.9	0.85	0.8102943301200867	0.4502981901168823	1.0	1.0	saxophone	'nV_V'	saxophone_14.jpg	7.0	1.0	Musical_Inst	Nonliving_Things	300.9	24.0	glimpse	0
301.75	0.85	0.8102943301200867	0.4502981901168823	1.0	1.0	saxophone	'nV_V'	saxophone_14.jpg	7.0	1.0	Musical_Inst	Nonliving_Things	301.75	24.0	glimpse	0
302.6	0.85	0.8102943301200867	0.4502981901168823	1.0	1.0	saxophone	'nV_V'	saxophone_14.jpg	7.0	1.0	Musical_Inst	Nonliving_Things	302.6	24.0	glimpse	0
303.45	0.85	0.8102943301200867	0.4502981901168823	1.0	1.0	saxophone	'nV_V'	saxophone_14.jpg	7.0	1.0	Musical_Inst	Nonliving_Things	303.45	24.0	glimpse	0
304.3	0.85	0.8102943301200867	0.4502981901168823	1.0	1.0	saxophone	'nV_V'	saxophone_14.jpg	7.0	1.0	Musical_Inst	Nonliving_Things	304.3	24.0	glimpse	0
305.15	0.85	0.8102943301200867	0.4502981901168823	1.0	1.0	saxophone	'nV_V'	saxophone_14.jpg	7.0	1.0	Musical_Inst	Nonliving_Things	305.15	24.0	glimpse	0
306.0	0.85	0.8102943301200867	0.4502981901168823	1.0	1.0	saxophone	'nV_V'	saxophone_14.jpg	7.0	1.0	Musical_Inst	Nonliving_Things	306.0	24.0	glimpse	1
306.85	0.85	0.8102943301200867	0.4502981901168823	1.0	1.0	saxophone	'nV_V'	saxophone_14.jpg	7.0	1.0	Musical_Inst	Nonliving_Things	306.85	24.0	glimpse	1
307.7	0.85	0.8102943301200867	0.4502981901168823	1.0	1.0	saxophone	'nV_V'	saxophone_14.jpg	7.0	1.0	Musical_Inst	Nonliving_Things	307.7	24.0	glimpse	1
308.55	0.85	0.8102943301200867	0.4502981901168823	1.0	1.0	saxophone	'nV_V'	saxophone_14.jpg	7.0	1.0	Musical_Inst	Nonliving_Things	308.55	24.0	glimpse	1
309.4	0.85	0.8102943301200867	0.4502981901168823	1.0	1.0	saxophone	'nV_V'	saxophone_14.jpg	7.0	1.0	Musical_Inst	Nonliving_Things	309.4	24.0	glimpse	0
310.25	0.85	0.8102943301200867	0.4502981901168823	1.0	1.0	saxophone	'nV_V'	saxophone_14.jpg	7.0	1.0	Musical_Inst	Nonliving_Things	310.25	24.0	glimpse	0
311.1	0.85	0.8102943301200867	0.4502981901168823	1.0	1.0	saxophone	'nV_V'	saxophone_14.jpg	7.0	1.0	Musical_Inst	Nonliving_Things	311.1	24.0	glimpse	0
311.95	0.85	0.8102943301200867	0.4502981901168823	1.0	1.0	saxophone	'nV_V'	saxophone_14.jpg	7.0	1.0	Musical_Inst	Nonliving_Things	311.95	24.0	glimpse	0
312.8	0.85	0.9702959060668944	0.3502956032752991	1.0	1.0	table	'nV_V'	table_6.jpg	6.0	1.0	Furniture	Nonliving_Things	312.8	25.0	glimpse	0
313.65	0.85	0.9702959060668944	0.3502956032752991	1.0	1.0	table	'nV_V'	table_6.jpg	6.0	1.0	Furniture	Nonliving_Things	313.65	25.0	glimpse	0
314.5	0.85	0.9702959060668944	0.3502956032752991	1.0	1.0	table	'nV_V'	table_6.jpg	6.0	1.0	Furniture	Nonliving_Things	314.5	25.0	glimpse	0
315.35	0.85	0.9702959060668944	0.3502956032752991	1.0	1.0	table	'nV_V'	table_6.jpg	6.0	1.0	Furniture	Nonliving_Things	315.35	25.0	glimpse	0
316.2	0.85	0.9702959060668944	0.3502956032752991	1.0	1.0	table	'nV_V'	table_6.jpg	6.0	1.0	Furniture	Nonliving_Things	316.2	25.0	glimpse	0
317.05	0.85	0.9702959060668944	0.3502956032752991	1.0	1.0	table	'nV_V'	table_6.jpg	6.0	1.0	Furniture	Nonliving_Things	317.05	25.0	glimpse	0
317.9	0.85	0.9702959060668944	0.3502956032752991	1.0	1.0	table	'nV_V'	table_6.jpg	6.0	1.0	Furniture	Nonliving_Things	317.9	25.0	glimpse	0
318.75	0.85	0.9702959060668944	0.3502956032752991	1.0	1.0	table	'nV_V'	table_6.jpg	6.0	1.0	Furniture	Nonliving_Things	318.75	25.0	glimpse	1
319.6	0.85	0.9702959060668944	0.3502956032752991	1.0	1.0	table	'nV_V'	table_6.jpg	6.0	1.0	Furniture	Nonliving_Things	319.6	25.0	glimpse	1
320.45	0.85	0.9702959060668944	0.3502956032752991	1.0	1.0	table	'nV_V'	table_6.jpg	6.0	1.0	Furniture	Nonliving_Things	320.45	25.0	glimpse	1
321.3	0.85	0.9702959060668944	0.3502956032752991	1.0	1.0	table	'nV_V'	table_6.jpg	6.0	1.0	Furniture	Nonliving_Things	321.3	25.0	glimpse	0
322.15	0.85	0.9702959060668944	0.3502956032752991	1.0	1.0	table	'nV_V'	table_6.jpg	6.0	1.0	Furniture	Nonliving_Things	322.15	25.0	glimpse	0
323.0	0.85	0.9702959060668944	0.3502956032752991	1.0	1.0	table	'nV_V'	table_6.jpg	6.0	1.0	Furniture	Nonliving_Things	323.0	25.0	glimpse	0
323.85	0.85	0.9702959060668944	0.3502956032752991	1.0	1.0	table	'nV_V'	table_6.jpg	6.0	1.0	Furniture	Nonliving_Things	323.85	25.0	glimpse	0
324.7	0.85	0.9702959060668944	0.3502956032752991	1.0	1.0	table	'nV_V'	table_6.jpg	6.0	1.0	Furniture	Nonliving_Things	324.7	25.0	glimpse	0
325.55	0.85	0.9702959060668944	0.3502956032752991	1.0	1.0	table	'nV_V'	table_6.jpg	6.0	1.0	Furniture	Nonliving_Things	325.55	25.0	glimpse	0
326.4	0.85	0.6802516579627991	0.3402964770793915	1.0	2.0	pot	'V_nV'	pot_25.jpg	5.0	2.0	Kitchen_Uten	Nonliving_Things	326.4	26.0	glimpse	0
327.25	0.85	0.6802516579627991	0.3402964770793915	1.0	2.0	pot	'V_nV'	pot_25.jpg	5.0	2.0	Kitchen_Uten	Nonliving_Things	327.25	26.0	glimpse	0
328.1	0.85	0.6802516579627991	0.3402964770793915	1.0	2.0	pot	'V_nV'	pot_25.jpg	5.0	2.0	Kitchen_Uten	Nonliving_Things	328.1	26.0	glimpse	0
328.95	0.85	0.6802516579627991	0.3402964770793915	1.0	2.0	pot	'V_nV'	pot_25.jpg	5.0	2.0	Kitchen_Uten	Nonliving_Things	328.95	26.0	glimpse	0
329.8	0.85	0.6802516579627991	0.3402964770793915	1.0	2.0	pot	'V_nV'	pot_25.jpg	5.0	2.0	Kitchen_Uten	Nonliving_Things	329.8	26.0	glimpse	0
330.65	0.85	0.6802516579627991	0.3402964770793915	1.0	2.0	pot	'V_nV'	pot_25.jpg	5.0	2.0	Kitchen_Uten	Nonliving_Things	330.65	26.0	glimpse	0
331.5	0.85	0.6802516579627991	0.3402964770793915	1.0	2.0	pot	'V_nV'	pot_25.jpg	5.0	2.0	Kitchen_Uten	Nonliving_Things	331.5	26.0	glimpse	0
332.35	0.85	0.6802516579627991	0.3402964770793915	1.0	2.0	pot	'V_nV'	pot_25.jpg	5.0	2.0	Kitchen_Uten	Nonliving_Things	332.35	26.0	glimpse	1
333.2	0.85	0.6802516579627991	0.3402964770793915	1.0	2.0	pot	'V_nV'	pot_25.jpg	5.0	2.0	Kitchen_Uten	Nonliving_Things	333.2	26.0	glimpse	1
334.05	0.85	0.6802516579627991	0.3402964770793915	1.0	2.0	pot	'V_nV'	pot_25.jpg	5.0	2.0	Kitchen_Uten	Nonliving_Things	334.05	26.0	glimpse	1
334.9	0.85	0.6802516579627991	0.3402964770793915	1.0	2.0	pot	'V_nV'	pot_25.jpg	5.0	2.0	Kitchen_Uten	Nonliving_Things	334.9	26.0	glimpse	0
335.75	0.85	0.6802516579627991	0.3402964770793915	1.0	2.0	pot	'V_nV'	pot_25.jpg	5.0	2.0	Kitchen_Uten	Nonliving_Things	335.75	26.0	glimpse	0
336.6	0.85	0.6802516579627991	0.3402964770793915	1.0	2.0	pot	'V_nV'	pot_25.jpg	5.0	2.0	Kitchen_Uten	Nonliving_Things	336.6	26.0	glimpse	0
337.45	0.85	0.6802516579627991	0.3402964770793915	1.0	2.0	pot	'V_nV'	pot_25.jpg	5.0	2.0	Kitchen_Uten	Nonliving_Things	337.45	26.0	glimpse	0
338.3	0.85	0.6802516579627991	0.3402964770793915	1.0	2.0	pot	'V_nV'	pot_25.jpg	5.0	2.0	Kitchen_Uten	Nonliving_Things	338.3	26.0	glimpse	0
339.15	0.85	1.3702481985092163	0.7103010416030884	0.0	2.0	ladybird	'nV_V'	ladybird_21.jpg	4.0	1.0	Insects	Living_Things	339.15	27.0	unconscious	0
340.0	0.85	1.3702481985092163	0.7103010416030884	0.0	2.0	ladybird	'nV_V'	ladybird_21.jpg	4.0	1.0	Insects	Living_Things	340.0	27.0	unconscious	0
340.85	0.85	1.3702481985092163	0.7103010416030884	0.0	2.0	ladybird	'nV_V'	ladybird_21.jpg	4.0	1.0	Insects	Living_Things	340.85	27.0	unconscious	0
341.7	0.85	1.3702481985092163	0.7103010416030884	0.0	2.0	ladybird	'nV_V'	ladybird_21.jpg	4.0	1.0	Insects	Living_Things	341.7	27.0	unconscious	0
342.55	0.85	1.3702481985092163	0.7103010416030884	0.0	2.0	ladybird	'nV_V'	ladybird_21.jpg	4.0	1.0	Insects	Living_Things	342.55	27.0	unconscious	0
343.4	0.85	1.3702481985092163	0.7103010416030884	0.0	2.0	ladybird	'nV_V'	ladybird_21.jpg	4.0	1.0	Insects	Living_Things	343.4	27.0	unconscious	0
344.25	0.85	1.3702481985092163	0.7103010416030884	0.0	2.0	ladybird	'nV_V'	ladybird_21.jpg	4.0	1.0	Insects	Living_Things	344.25	27.0	unconscious	0
345.1	0.85	1.3702481985092163	0.7103010416030884	0.0	2.0	ladybird	'nV_V'	ladybird_21.jpg	4.0	1.0	Insects	Living_Things	345.1	27.0	unconscious	1
345.95	0.85	1.3702481985092163	0.7103010416030884	0.0	2.0	ladybird	'nV_V'	ladybird_21.jpg	4.0	1.0	Insects	Living_Things	345.95	27.0	unconscious	1
346.8	0.85	1.3702481985092163	0.7103010416030884	0.0	2.0	ladybird	'nV_V'	ladybird_21.jpg	4.0	1.0	Insects	Living_Things	346.8	27.0	unconscious	1
347.65	0.85	1.3702481985092163	0.7103010416030884	0.0	2.0	ladybird	'nV_V'	ladybird_21.jpg	4.0	1.0	Insects	Living_Things	347.65	27.0	unconscious	0
348.5	0.85	1.3702481985092163	0.7103010416030884	0.0	2.0	ladybird	'nV_V'	ladybird_21.jpg	4.0	1.0	Insects	Living_Things	348.5	27.0	unconscious	0
349.35	0.85	1.3702481985092163	0.7103010416030884	0.0	2.0	ladybird	'nV_V'	ladybird_21.jpg	4.0	1.0	Insects	Living_Things	349.35	27.0	unconscious	0
350.2	0.85	1.3702481985092163	0.7103010416030884	0.0	2.0	ladybird	'nV_V'	ladybird_21.jpg	4.0	1.0	Insects	Living_Things	350.2	27.0	unconscious	0
351.05	0.85	1.3702481985092163	0.7103010416030884	0.0	2.0	ladybird	'nV_V'	ladybird_21.jpg	4.0	1.0	Insects	Living_Things	351.05	27.0	unconscious	0
351.9	0.85	1.3702481985092163	0.7103010416030884	0.0	2.0	ladybird	'nV_V'	ladybird_21.jpg	4.0	1.0	Insects	Living_Things	351.9	27.0	unconscious	0
352.75	0.85	1.4802896976470947	0.7602929472923279	1.0	1.0	scorpion	'V_nV'	scorpion_24.jpg	5.0	1.0	Insects	Living_Things	352.75	28.0	unconscious	0
353.6	0.85	1.4802896976470947	0.7602929472923279	1.0	1.0	scorpion	'V_nV'	scorpion_24.jpg	5.0	1.0	Insects	Living_Things	353.6	28.0	unconscious	0
354.45	0.85	1.4802896976470947	0.7602929472923279	1.0	1.0	scorpion	'V_nV'	scorpion_24.jpg	5.0	1.0	Insects	Living_Things	354.45	28.0	unconscious	0
355.3	0.85	1.4802896976470947	0.7602929472923279	1.0	1.0	scorpion	'V_nV'	scorpion_24.jpg	5.0	1.0	Insects	Living_Things	355.3	28.0	unconscious	0
356.15	0.85	1.4802896976470947	0.7602929472923279	1.0	1.0	scorpion	'V_nV'	scorpion_24.jpg	5.0	1.0	Insects	Living_Things	356.15	28.0	unconscious	0
357.0	0.85	1.4802896976470947	0.7602929472923279	1.0	1.0	scorpion	'V_nV'	scorpion_24.jpg	5.0	1.0	Insects	Living_Things	357.0	28.0	unconscious	0
357.85	0.85	1.4802896976470947	0.7602929472923279	1.0	1.0	scorpion	'V_nV'	scorpion_24.jpg	5.0	1.0	Insects	Living_Things	357.85	28.0	unconscious	0
358.7	0.85	1.4802896976470947	0.7602929472923279	1.0	1.0	scorpion	'V_nV'	scorpion_24.jpg	5.0	1.0	Insects	Living_Things	358.7	28.0	unconscious	1
359.55	0.85	1.4802896976470947	0.7602929472923279	1.0	1.0	scorpion	'V_nV'	scorpion_24.jpg	5.0	1.0	Insects	Living_Things	359.55	28.0	unconscious	1
360.4	0.85	1.4802896976470947	0.7602929472923279	1.0	1.0	scorpion	'V_nV'	scorpion_24.jpg	5.0	1.0	Insects	Living_Things	360.4	28.0	unconscious	1
361.25	0.85	1.4802896976470947	0.7602929472923279	1.0	1.0	scorpion	'V_nV'	scorpion_24.jpg	5.0	1.0	Insects	Living_Things	361.25	28.0	unconscious	0
362.1	0.85	1.4802896976470947	0.7602929472923279	1.0	1.0	scorpion	'V_nV'	scorpion_24.jpg	5.0	1.0	Insects	Living_Things	362.1	28.0	unconscious	0
362.95	0.85	1.4802896976470947	0.7602929472923279	1.0	1.0	scorpion	'V_nV'	scorpion_24.jpg	5.0	1.0	Insects	Living_Things	362.95	28.0	unconscious	0
363.8	0.85	1.4802896976470947	0.7602929472923279	1.0	1.0	scorpion	'V_nV'	scorpion_24.jpg	5.0	1.0	Insects	Living_Things	363.8	28.0	unconscious	0
364.65	0.85	1.4802896976470947	0.7602929472923279	1.0	1.0	scorpion	'V_nV'	scorpion_24.jpg	5.0	1.0	Insects	Living_Things	364.65	28.0	unconscious	0
365.5	0.85	1.4802896976470947	0.7602929472923279	1.0	1.0	scorpion	'V_nV'	scorpion_24.jpg	5.0	1.0	Insects	Living_Things	365.5	28.0	unconscious	0
366.35	0.85	0.9402900338172911	0.4002532958984375	1.0	2.0	saucepan	'V_nV'	saucepan_21.jpg	8.0	2.0	Kitchen_Uten	Nonliving_Things	366.35	29.0	conscious	0
367.2	0.85	0.9402900338172911	0.4002532958984375	1.0	2.0	saucepan	'V_nV'	saucepan_21.jpg	8.0	2.0	Kitchen_Uten	Nonliving_Things	367.2	29.0	conscious	0
368.05	0.85	0.9402900338172911	0.4002532958984375	1.0	2.0	saucepan	'V_nV'	saucepan_21.jpg	8.0	2.0	Kitchen_Uten	Nonliving_Things	368.05	29.0	conscious	0
368.9	0.85	0.9402900338172911	0.4002532958984375	1.0	2.0	saucepan	'V_nV'	saucepan_21.jpg	8.0	2.0	Kitchen_Uten	Nonliving_Things	368.9	29.0	conscious	0
369.75	0.85	0.9402900338172911	0.4002532958984375	1.0	2.0	saucepan	'V_nV'	saucepan_21.jpg	8.0	2.0	Kitchen_Uten	Nonliving_Things	369.75	29.0	conscious	0
370.6	0.85	0.9402900338172911	0.4002532958984375	1.0	2.0	saucepan	'V_nV'	saucepan_21.jpg	8.0	2.0	Kitchen_Uten	Nonliving_Things	370.6	29.0	conscious	0
371.45	0.85	0.9402900338172911	0.4002532958984375	1.0	2.0	saucepan	'V_nV'	saucepan_21.jpg	8.0	2.0	Kitchen_Uten	Nonliving_Things	371.45	29.0	conscious	1
372.3	0.85	0.9402900338172911	0.4002532958984375	1.0	2.0	saucepan	'V_nV'	saucepan_21.jpg	8.0	2.0	Kitchen_Uten	Nonliving_Things	372.3	29.0	conscious	1
373.15	0.85	0.9402900338172911	0.4002532958984375	1.0	2.0	saucepan	'V_nV'	saucepan_21.jpg	8.0	2.0	Kitchen_Uten	Nonliving_Things	373.15	29.0	conscious	1
374.0	0.85	0.9402900338172911	0.4002532958984375	1.0	2.0	saucepan	'V_nV'	saucepan_21.jpg	8.0	2.0	Kitchen_Uten	Nonliving_Things	374.0	29.0	conscious	1
374.85	0.85	0.9402900338172911	0.4002532958984375	1.0	2.0	saucepan	'V_nV'	saucepan_21.jpg	8.0	2.0	Kitchen_Uten	Nonliving_Things	374.85	29.0	conscious	0
375.7	0.85	0.9402900338172911	0.4002532958984375	1.0	2.0	saucepan	'V_nV'	saucepan_21.jpg	8.0	2.0	Kitchen_Uten	Nonliving_Things	375.7	29.0	conscious	0
376.55	0.85	0.9402900338172911	0.4002532958984375	1.0	2.0	saucepan	'V_nV'	saucepan_21.jpg	8.0	2.0	Kitchen_Uten	Nonliving_Things	376.55	29.0	conscious	0
377.4	0.85	0.9402900338172911	0.4002532958984375	1.0	2.0	saucepan	'V_nV'	saucepan_21.jpg	8.0	2.0	Kitchen_Uten	Nonliving_Things	377.4	29.0	conscious	0
378.25	0.85	0.8002985715866089	0.3503358364105225	1.0	2.0	tuba	'V_nV'	tuba_2.jpg	6.0	2.0	Musical_Inst	Nonliving_Things	378.25	30.0	conscious	0
379.1	0.85	0.8002985715866089	0.3503358364105225	1.0	2.0	tuba	'V_nV'	tuba_2.jpg	6.0	2.0	Musical_Inst	Nonliving_Things	379.1	30.0	conscious	0
379.95	0.85	0.8002985715866089	0.3503358364105225	1.0	2.0	tuba	'V_nV'	tuba_2.jpg	6.0	2.0	Musical_Inst	Nonliving_Things	379.95	30.0	conscious	0
380.8	0.85	0.8002985715866089	0.3503358364105225	1.0	2.0	tuba	'V_nV'	tuba_2.jpg	6.0	2.0	Musical_Inst	Nonliving_Things	380.8	30.0	conscious	0
381.65	0.85	0.8002985715866089	0.3503358364105225	1.0	2.0	tuba	'V_nV'	tuba_2.jpg	6.0	2.0	Musical_Inst	Nonliving_Things	381.65	30.0	conscious	0
382.5	0.85	0.8002985715866089	0.3503358364105225	1.0	2.0	tuba	'V_nV'	tuba_2.jpg	6.0	2.0	Musical_Inst	Nonliving_Things	382.5	30.0	conscious	0
383.35	0.85	0.8002985715866089	0.3503358364105225	1.0	2.0	tuba	'V_nV'	tuba_2.jpg	6.0	2.0	Musical_Inst	Nonliving_Things	383.35	30.0	conscious	0
384.2	0.85	0.8002985715866089	0.3503358364105225	1.0	2.0	tuba	'V_nV'	tuba_2.jpg	6.0	2.0	Musical_Inst	Nonliving_Things	384.2	30.0	conscious	1
385.05	0.85	0.8002985715866089	0.3503358364105225	1.0	2.0	tuba	'V_nV'	tuba_2.jpg	6.0	2.0	Musical_Inst	Nonliving_Things	385.05	30.0	conscious	1
385.9	0.85	0.8002985715866089	0.3503358364105225	1.0	2.0	tuba	'V_nV'	tuba_2.jpg	6.0	2.0	Musical_Inst	Nonliving_Things	385.9	30.0	conscious	1
386.75	0.85	0.8002985715866089	0.3503358364105225	1.0	2.0	tuba	'V_nV'	tuba_2.jpg	6.0	2.0	Musical_Inst	Nonliving_Things	386.75	30.0	conscious	0
387.6	0.85	0.8002985715866089	0.3503358364105225	1.0	2.0	tuba	'V_nV'	tuba_2.jpg	6.0	2.0	Musical_Inst	Nonliving_Things	387.6	30.0	conscious	0
388.45	0.85	0.8002985715866089	0.3503358364105225	1.0	2.0	tuba	'V_nV'	tuba_2.jpg	6.0	2.0	Musical_Inst	Nonliving_Things	388.45	30.0	conscious	0
389.3	0.85	0.8002985715866089	0.3503358364105225	1.0	2.0	tuba	'V_nV'	tuba_2.jpg	6.0	2.0	Musical_Inst	Nonliving_Things	389.3	30.0	conscious	0
390.15	0.85	0.8002985715866089	0.3503358364105225	1.0	2.0	tuba	'V_nV'	tuba_2.jpg	6.0	2.0	Musical_Inst	Nonliving_Things	390.15	30.0	conscious	0
391.0	0.85	0.7003049850463867	0.3103225231170654	0.0	2.0	kiwi	'nV_V'	kiwi_0.jpg	3.0	1.0	Birds	Living_Things	391.0	31.0	unconscious	0
391.85	0.85	0.7003049850463867	0.3103225231170654	0.0	2.0	kiwi	'nV_V'	kiwi_0.jpg	3.0	1.0	Birds	Living_Things	391.85	31.0	unconscious	0
392.7	0.85	0.7003049850463867	0.3103225231170654	0.0	2.0	kiwi	'nV_V'	kiwi_0.jpg	3.0	1.0	Birds	Living_Things	392.7	31.0	unconscious	0
393.55	0.85	0.7003049850463867	0.3103225231170654	0.0	2.0	kiwi	'nV_V'	kiwi_0.jpg	3.0	1.0	Birds	Living_Things	393.55	31.0	unconscious	0
394.4	0.85	0.7003049850463867	0.3103225231170654	0.0	2.0	kiwi	'nV_V'	kiwi_0.jpg	3.0	1.0	Birds	Living_Things	394.4	31.0	unconscious	0
395.25	0.85	0.7003049850463867	0.3103225231170654	0.0	2.0	kiwi	'nV_V'	kiwi_0.jpg	3.0	1.0	Birds	Living_Things	395.25	31.0	unconscious	0
396.1	0.85	0.7003049850463867	0.3103225231170654	0.0	2.0	kiwi	'nV_V'	kiwi_0.jpg	3.0	1.0	Birds	Living_Things	396.1	31.0	unconscious	1
396.95	0.85	0.7003049850463867	0.3103225231170654	0.0	2.0	kiwi	'nV_V'	kiwi_0.jpg	3.0	1.0	Birds	Living_Things	396.95	31.0	unconscious	1
397.8	0.85	0.7003049850463867	0.3103225231170654	0.0	2.0	kiwi	'nV_V'	kiwi_0.jpg	3.0	1.0	Birds	Living_Things	397.8	31.0	unconscious	1
398.65	0.85	0.7003049850463867	0.3103225231170654	0.0	2.0	kiwi	'nV_V'	kiwi_0.jpg	3.0	1.0	Birds	Living_Things	398.65	31.0	unconscious	1
399.5	0.85	0.7003049850463867	0.3103225231170654	0.0	2.0	kiwi	'nV_V'	kiwi_0.jpg	3.0	1.0	Birds	Living_Things	399.5	31.0	unconscious	0
400.35	0.85	0.7003049850463867	0.3103225231170654	0.0	2.0	kiwi	'nV_V'	kiwi_0.jpg	3.0	1.0	Birds	Living_Things	400.35	31.0	unconscious	0
401.2	0.85	0.7003049850463867	0.3103225231170654	0.0	2.0	kiwi	'nV_V'	kiwi_0.jpg	3.0	1.0	Birds	Living_Things	401.2	31.0	unconscious	0
402.05	0.85	0.7003049850463867	0.3103225231170654	0.0	2.0	kiwi	'nV_V'	kiwi_0.jpg	3.0	1.0	Birds	Living_Things	402.05	31.0	unconscious	0
402.9	0.85	0.9103325009346008	0.4803473949432373	0.0	1.0	giraffe	'V_nV'	giraffe_3.jpg	6.0	2.0	Animals	Living_Things	402.9	32.0	unconscious	0
403.75	0.85	0.9103325009346008	0.4803473949432373	0.0	1.0	giraffe	'V_nV'	giraffe_3.jpg	6.0	2.0	Animals	Living_Things	403.75	32.0	unconscious	0
404.6	0.85	0.9103325009346008	0.4803473949432373	0.0	1.0	giraffe	'V_nV'	giraffe_3.jpg	6.0	2.0	Animals	Living_Things	404.6	32.0	unconscious	0
405.45	0.85	0.9103325009346008	0.4803473949432373	0.0	1.0	giraffe	'V_nV'	giraffe_3.jpg	6.0	2.0	Animals	Living_Things	405.45	32.0	unconscious	0
406.3	0.85	0.9103325009346008	0.4803473949432373	0.0	1.0	giraffe	'V_nV'	giraffe_3.jpg	6.0	2.0	Animals	Living_Things	406.3	32.0	unconscious	0
407.15	0.85	0.9103325009346008	0.4803473949432373	0.0	1.0	giraffe	'V_nV'	giraffe_3.jpg	6.0	2.0	Animals	Living_Things	407.15	32.0	unconscious	0
408.0	0.85	0.9103325009346008	0.4803473949432373	0.0	1.0	giraffe	'V_nV'	giraffe_3.jpg	6.0	2.0	Animals	Living_Things	408.0	32.0	unconscious	0
408.85	0.85	0.9103325009346008	0.4803473949432373	0.0	1.0	giraffe	'V_nV'	giraffe_3.jpg	6.0	2.0	Animals	Living_Things	408.85	32.0	unconscious	1
409.7	0.85	0.9103325009346008	0.4803473949432373	0.0	1.0	giraffe	'V_nV'	giraffe_3.jpg	6.0	2.0	Animals	Living_Things	409.7	32.0	unconscious	1
410.55	0.85	0.9103325009346008	0.4803473949432373	0.0	1.0	giraffe	'V_nV'	giraffe_3.jpg	6.0	2.0	Animals	Living_Things	410.55	32.0	unconscious	1
411.4	0.85	0.9103325009346008	0.4803473949432373	0.0	1.0	giraffe	'V_nV'	giraffe_3.jpg	6.0	2.0	Animals	Living_Things	411.4	32.0	unconscious	0
412.25	0.85	0.9103325009346008	0.4803473949432373	0.0	1.0	giraffe	'V_nV'	giraffe_3.jpg	6.0	2.0	Animals	Living_Things	412.25	32.0	unconscious	0
413.1	0.85	0.9103325009346008	0.4803473949432373	0.0	1.0	giraffe	'V_nV'	giraffe_3.jpg	6.0	2.0	Animals	Living_Things	413.1	32.0	unconscious	0
413.95	0.85	0.9103325009346008	0.4803473949432373	0.0	1.0	giraffe	'V_nV'	giraffe_3.jpg	6.0	2.0	Animals	Living_Things	413.95	32.0	unconscious	0
414.8	0.85	0.9103325009346008	0.4803473949432373	0.0	1.0	giraffe	'V_nV'	giraffe_3.jpg	6.0	2.0	Animals	Living_Things	414.8	32.0	unconscious	0
415.65	0.85	0.9103325009346008	0.4803473949432373	0.0	1.0	giraffe	'V_nV'	giraffe_3.jpg	6.0	2.0	Animals	Living_Things	415.65	32.0	unconscious	0
416.5	0.85	0.9103325009346008	0.4803473949432373	0.0	1.0	giraffe	'V_nV'	giraffe_3.jpg	6.0	2.0	Animals	Living_Things	416.5	32.0	unconscious	0
417.35	0.85	0.9103325009346008	0.4803473949432373	0.0	1.0	giraffe	'V_nV'	giraffe_3.jpg	6.0	2.0	Animals	Living_Things	417.35	32.0	unconscious	0
418.2	0.85	0.9103325009346008	0.4803473949432373	0.0	1.0	giraffe	'V_nV'	giraffe_3.jpg	6.0	2.0	Animals	Living_Things	418.2	32.0	unconscious	0
419.05	0.85	0.9103325009346008	0.4803473949432373	0.0	1.0	giraffe	'V_nV'	giraffe_3.jpg	6.0	2.0	Animals	Living_Things	419.05	32.0	unconscious	0
419.9	0.85	0.9103325009346008	0.4803473949432373	0.0	1.0	giraffe	'V_nV'	giraffe_3.jpg	6.0	2.0	Animals	Living_Things	419.9	32.0	unconscious	0
420.75	0.85	0.9103325009346008	0.4803473949432373	0.0	1.0	giraffe	'V_nV'	giraffe_3.jpg	6.0	2.0	Animals	Living_Things	420.75	32.0	unconscious	0
421.6	0.85	0.9103325009346008	0.4803473949432373	0.0	1.0	giraffe	'V_nV'	giraffe_3.jpg	6.0	2.0	Animals	Living_Things	421.6	32.0	unconscious	0
422.45	0.85	0.9103325009346008	0.4803473949432373	0.0	1.0	giraffe	'V_nV'	giraffe_3.jpg	6.0	2.0	Animals	Living_Things	422.45	32.0	unconscious	0
423.3	0.85	0.9103325009346008	0.4803473949432373	0.0	1.0	giraffe	'V_nV'	giraffe_3.jpg	6.0	2.0	Animals	Living_Things	423.3	32.0	unconscious	0
424.15	0.85	0.9103325009346008	0.4803473949432373	0.0	1.0	giraffe	'V_nV'	giraffe_3.jpg	6.0	2.0	Animals	Living_Things	424.15	32.0	unconscious	0
425.0	0.85	0.9103325009346008	0.4803473949432373	0.0	1.0	giraffe	'V_nV'	giraffe_3.jpg	6.0	2.0	Animals	Living_Things	425.0	32.0	unconscious	0
425.85	0.85	0.9103325009346008	0.4803473949432373	0.0	1.0	giraffe	'V_nV'	giraffe_3.jpg	6.0	2.0	Animals	Living_Things	425.85	32.0	unconscious	0
426.7	0.85	0.9103325009346008	0.4803473949432373	0.0	1.0	giraffe	'V_nV'	giraffe_3.jpg	6.0	2.0	Animals	Living_Things	426.7	32.0	unconscious	0
427.55	0.85	0.9103325009346008	0.4803473949432373	0.0	1.0	giraffe	'V_nV'	giraffe_3.jpg	6.0	2.0	Animals	Living_Things	427.55	32.0	unconscious	0
428.4	0.85	0.9103325009346008	0.4803473949432373	0.0	1.0	giraffe	'V_nV'	giraffe_3.jpg	6.0	2.0	Animals	Living_Things	428.4	32.0	unconscious	0
429.25	0.85	0.9103325009346008	0.4803473949432373	0.0	1.0	giraffe	'V_nV'	giraffe_3.jpg	6.0	2.0	Animals	Living_Things	429.25	32.0	unconscious	0
430.1	0.85	0.9103325009346008	0.4803473949432373	0.0	1.0	giraffe	'V_nV'	giraffe_3.jpg	6.0	2.0	Animals	Living_Things	430.1	32.0	unconscious	0
430.95	0.85	0.9103325009346008	0.4803473949432373	0.0	1.0	giraffe	'V_nV'	giraffe_3.jpg	6.0	2.0	Animals	Living_Things	430.95	32.0	unconscious	0
