onset	duration	RT_response	RT_visibility	correct	correctAns	labels	options	paths	probe_frame	response	subcategory	targets	time_coor	trials	visibility	volume_interest
0.0	0.85	0.0	0.0	0.0	0.0	n/a	n/a	n/a	0.0	0.0	n/a	n/a	0.0	0.0	n/a	0
0.85	0.85	0.0	0.0	0.0	0.0	n/a	n/a	n/a	0.0	0.0	n/a	n/a	0.85	0.0	n/a	0
1.7	0.85	0.5203154087066649	0.6703023314476013	1.0	2.0	bed	'V_nV'	bed_3.jpg	2.0	2.0	Furniture	Nonliving_Things	1.7	1.0	glimpse	0
2.55	0.85	0.5203154087066649	0.6703023314476013	1.0	2.0	bed	'V_nV'	bed_3.jpg	2.0	2.0	Furniture	Nonliving_Things	2.55	1.0	glimpse	0
3.4	0.85	0.5203154087066649	0.6703023314476013	1.0	2.0	bed	'V_nV'	bed_3.jpg	2.0	2.0	Furniture	Nonliving_Things	3.4	1.0	glimpse	0
4.25	0.85	0.5203154087066649	0.6703023314476013	1.0	2.0	bed	'V_nV'	bed_3.jpg	2.0	2.0	Furniture	Nonliving_Things	4.25	1.0	glimpse	0
5.1	0.85	0.5203154087066649	0.6703023314476013	1.0	2.0	bed	'V_nV'	bed_3.jpg	2.0	2.0	Furniture	Nonliving_Things	5.1	1.0	glimpse	0
5.95	0.85	0.5203154087066649	0.6703023314476013	1.0	2.0	bed	'V_nV'	bed_3.jpg	2.0	2.0	Furniture	Nonliving_Things	5.95	1.0	glimpse	0
6.8	0.85	0.5203154087066649	0.6703023314476013	1.0	2.0	bed	'V_nV'	bed_3.jpg	2.0	2.0	Furniture	Nonliving_Things	6.8	1.0	glimpse	0
7.649999999999999	0.85	0.5203154087066649	0.6703023314476013	1.0	2.0	bed	'V_nV'	bed_3.jpg	2.0	2.0	Furniture	Nonliving_Things	7.649999999999999	1.0	glimpse	1
8.5	0.85	0.5203154087066649	0.6703023314476013	1.0	2.0	bed	'V_nV'	bed_3.jpg	2.0	2.0	Furniture	Nonliving_Things	8.5	1.0	glimpse	1
9.35	0.85	0.5203154087066649	0.6703023314476013	1.0	2.0	bed	'V_nV'	bed_3.jpg	2.0	2.0	Furniture	Nonliving_Things	9.35	1.0	glimpse	1
10.2	0.85	0.5203154087066649	0.6703023314476013	1.0	2.0	bed	'V_nV'	bed_3.jpg	2.0	2.0	Furniture	Nonliving_Things	10.2	1.0	glimpse	0
11.05	0.85	0.5203154087066649	0.6703023314476013	1.0	2.0	bed	'V_nV'	bed_3.jpg	2.0	2.0	Furniture	Nonliving_Things	11.05	1.0	glimpse	0
11.9	0.85	0.5203154087066649	0.6703023314476013	1.0	2.0	bed	'V_nV'	bed_3.jpg	2.0	2.0	Furniture	Nonliving_Things	11.9	1.0	glimpse	0
12.75	0.85	0.5203154087066649	0.6703023314476013	1.0	2.0	bed	'V_nV'	bed_3.jpg	2.0	2.0	Furniture	Nonliving_Things	12.75	1.0	glimpse	0
13.6	0.85	0.5203154087066649	0.6703023314476013	1.0	2.0	bed	'V_nV'	bed_3.jpg	2.0	2.0	Furniture	Nonliving_Things	13.6	1.0	glimpse	0
14.45	0.85	0.5203154087066649	0.6703023314476013	1.0	2.0	bed	'V_nV'	bed_3.jpg	2.0	2.0	Furniture	Nonliving_Things	14.45	1.0	glimpse	0
15.3	0.85	0.5203542113304138	0.400351881980896	0.0	2.0	armchair	'V_nV'	armchair_6.jpg	1.0	1.0	Furniture	Nonliving_Things	15.3	2.0	unconscious	0
16.15	0.85	0.5203542113304138	0.400351881980896	0.0	2.0	armchair	'V_nV'	armchair_6.jpg	1.0	1.0	Furniture	Nonliving_Things	16.15	2.0	unconscious	0
17.0	0.85	0.5203542113304138	0.400351881980896	0.0	2.0	armchair	'V_nV'	armchair_6.jpg	1.0	1.0	Furniture	Nonliving_Things	17.0	2.0	unconscious	0
17.849999999999998	0.85	0.5203542113304138	0.400351881980896	0.0	2.0	armchair	'V_nV'	armchair_6.jpg	1.0	1.0	Furniture	Nonliving_Things	17.849999999999998	2.0	unconscious	0
18.7	0.85	0.5203542113304138	0.400351881980896	0.0	2.0	armchair	'V_nV'	armchair_6.jpg	1.0	1.0	Furniture	Nonliving_Things	18.7	2.0	unconscious	0
19.55	0.85	0.5203542113304138	0.400351881980896	0.0	2.0	armchair	'V_nV'	armchair_6.jpg	1.0	1.0	Furniture	Nonliving_Things	19.55	2.0	unconscious	0
20.4	0.85	0.5203542113304138	0.400351881980896	0.0	2.0	armchair	'V_nV'	armchair_6.jpg	1.0	1.0	Furniture	Nonliving_Things	20.4	2.0	unconscious	1
21.25	0.85	0.5203542113304138	0.400351881980896	0.0	2.0	armchair	'V_nV'	armchair_6.jpg	1.0	1.0	Furniture	Nonliving_Things	21.25	2.0	unconscious	1
22.1	0.85	0.5203542113304138	0.400351881980896	0.0	2.0	armchair	'V_nV'	armchair_6.jpg	1.0	1.0	Furniture	Nonliving_Things	22.1	2.0	unconscious	1
22.95	0.85	0.5203542113304138	0.400351881980896	0.0	2.0	armchair	'V_nV'	armchair_6.jpg	1.0	1.0	Furniture	Nonliving_Things	22.95	2.0	unconscious	1
23.8	0.85	0.5203542113304138	0.400351881980896	0.0	2.0	armchair	'V_nV'	armchair_6.jpg	1.0	1.0	Furniture	Nonliving_Things	23.8	2.0	unconscious	0
24.65	0.85	0.5203542113304138	0.400351881980896	0.0	2.0	armchair	'V_nV'	armchair_6.jpg	1.0	1.0	Furniture	Nonliving_Things	24.65	2.0	unconscious	0
25.5	0.85	0.5203542113304138	0.400351881980896	0.0	2.0	armchair	'V_nV'	armchair_6.jpg	1.0	1.0	Furniture	Nonliving_Things	25.5	2.0	unconscious	0
26.35	0.85	0.5203542113304138	0.400351881980896	0.0	2.0	armchair	'V_nV'	armchair_6.jpg	1.0	1.0	Furniture	Nonliving_Things	26.35	2.0	unconscious	0
27.2	0.85	0.5203542113304138	0.400351881980896	0.0	2.0	armchair	'V_nV'	armchair_6.jpg	1.0	1.0	Furniture	Nonliving_Things	27.2	2.0	unconscious	0
28.05	0.85	0.5203542113304138	0.400351881980896	0.0	2.0	armchair	'V_nV'	armchair_6.jpg	1.0	1.0	Furniture	Nonliving_Things	28.05	2.0	unconscious	0
28.9	0.85	0.6603345274925232	0.5703468918800354	1.0	2.0	axe	'V_nV'	axe_13.jpg	2.0	2.0	Tools	Nonliving_Things	28.9	3.0	glimpse	0
29.75	0.85	0.6603345274925232	0.5703468918800354	1.0	2.0	axe	'V_nV'	axe_13.jpg	2.0	2.0	Tools	Nonliving_Things	29.75	3.0	glimpse	0
30.6	0.85	0.6603345274925232	0.5703468918800354	1.0	2.0	axe	'V_nV'	axe_13.jpg	2.0	2.0	Tools	Nonliving_Things	30.6	3.0	glimpse	0
31.45	0.85	0.6603345274925232	0.5703468918800354	1.0	2.0	axe	'V_nV'	axe_13.jpg	2.0	2.0	Tools	Nonliving_Things	31.45	3.0	glimpse	0
32.3	0.85	0.6603345274925232	0.5703468918800354	1.0	2.0	axe	'V_nV'	axe_13.jpg	2.0	2.0	Tools	Nonliving_Things	32.3	3.0	glimpse	0
33.15	0.85	0.6603345274925232	0.5703468918800354	1.0	2.0	axe	'V_nV'	axe_13.jpg	2.0	2.0	Tools	Nonliving_Things	33.15	3.0	glimpse	0
34.0	0.85	0.6603345274925232	0.5703468918800354	1.0	2.0	axe	'V_nV'	axe_13.jpg	2.0	2.0	Tools	Nonliving_Things	34.0	3.0	glimpse	0
34.85	0.85	0.6603345274925232	0.5703468918800354	1.0	2.0	axe	'V_nV'	axe_13.jpg	2.0	2.0	Tools	Nonliving_Things	34.85	3.0	glimpse	1
35.7	0.85	0.6603345274925232	0.5703468918800354	1.0	2.0	axe	'V_nV'	axe_13.jpg	2.0	2.0	Tools	Nonliving_Things	35.7	3.0	glimpse	1
36.55	0.85	0.6603345274925232	0.5703468918800354	1.0	2.0	axe	'V_nV'	axe_13.jpg	2.0	2.0	Tools	Nonliving_Things	36.55	3.0	glimpse	1
37.4	0.85	0.6603345274925232	0.5703468918800354	1.0	2.0	axe	'V_nV'	axe_13.jpg	2.0	2.0	Tools	Nonliving_Things	37.4	3.0	glimpse	0
38.25	0.85	0.6603345274925232	0.5703468918800354	1.0	2.0	axe	'V_nV'	axe_13.jpg	2.0	2.0	Tools	Nonliving_Things	38.25	3.0	glimpse	0
39.1	0.85	0.6603345274925232	0.5703468918800354	1.0	2.0	axe	'V_nV'	axe_13.jpg	2.0	2.0	Tools	Nonliving_Things	39.1	3.0	glimpse	0
39.95	0.85	0.6603345274925232	0.5703468918800354	1.0	2.0	axe	'V_nV'	axe_13.jpg	2.0	2.0	Tools	Nonliving_Things	39.95	3.0	glimpse	0
40.8	0.85	0.6603345274925232	0.5703468918800354	1.0	2.0	axe	'V_nV'	axe_13.jpg	2.0	2.0	Tools	Nonliving_Things	40.8	3.0	glimpse	0
41.65	0.85	0.6603345274925232	0.5703468918800354	1.0	2.0	axe	'V_nV'	axe_13.jpg	2.0	2.0	Tools	Nonliving_Things	41.65	3.0	glimpse	0
42.5	0.85	0.6603345274925232	0.5703468918800354	1.0	2.0	axe	'V_nV'	axe_13.jpg	2.0	2.0	Tools	Nonliving_Things	42.5	3.0	glimpse	0
43.35	0.85	0.5803359746932983	0.2803071737289429	1.0	2.0	piano	'V_nV'	piano__10.jpg	1.0	2.0	Musical_Inst	Nonliving_Things	43.35	4.0	glimpse	0
44.2	0.85	0.5803359746932983	0.2803071737289429	1.0	2.0	piano	'V_nV'	piano__10.jpg	1.0	2.0	Musical_Inst	Nonliving_Things	44.2	4.0	glimpse	0
45.05	0.85	0.5803359746932983	0.2803071737289429	1.0	2.0	piano	'V_nV'	piano__10.jpg	1.0	2.0	Musical_Inst	Nonliving_Things	45.05	4.0	glimpse	0
45.9	0.85	0.5803359746932983	0.2803071737289429	1.0	2.0	piano	'V_nV'	piano__10.jpg	1.0	2.0	Musical_Inst	Nonliving_Things	45.9	4.0	glimpse	0
46.75	0.85	0.5803359746932983	0.2803071737289429	1.0	2.0	piano	'V_nV'	piano__10.jpg	1.0	2.0	Musical_Inst	Nonliving_Things	46.75	4.0	glimpse	0
47.6	0.85	0.5803359746932983	0.2803071737289429	1.0	2.0	piano	'V_nV'	piano__10.jpg	1.0	2.0	Musical_Inst	Nonliving_Things	47.6	4.0	glimpse	0
48.45	0.85	0.5803359746932983	0.2803071737289429	1.0	2.0	piano	'V_nV'	piano__10.jpg	1.0	2.0	Musical_Inst	Nonliving_Things	48.45	4.0	glimpse	0
49.3	0.85	0.5803359746932983	0.2803071737289429	1.0	2.0	piano	'V_nV'	piano__10.jpg	1.0	2.0	Musical_Inst	Nonliving_Things	49.3	4.0	glimpse	1
50.15	0.85	0.5803359746932983	0.2803071737289429	1.0	2.0	piano	'V_nV'	piano__10.jpg	1.0	2.0	Musical_Inst	Nonliving_Things	50.15	4.0	glimpse	1
51.0	0.85	0.5803359746932983	0.2803071737289429	1.0	2.0	piano	'V_nV'	piano__10.jpg	1.0	2.0	Musical_Inst	Nonliving_Things	51.0	4.0	glimpse	1
51.85	0.85	0.5803359746932983	0.2803071737289429	1.0	2.0	piano	'V_nV'	piano__10.jpg	1.0	2.0	Musical_Inst	Nonliving_Things	51.85	4.0	glimpse	0
52.7	0.85	0.5803359746932983	0.2803071737289429	1.0	2.0	piano	'V_nV'	piano__10.jpg	1.0	2.0	Musical_Inst	Nonliving_Things	52.7	4.0	glimpse	0
53.55	0.85	0.5803359746932983	0.2803071737289429	1.0	2.0	piano	'V_nV'	piano__10.jpg	1.0	2.0	Musical_Inst	Nonliving_Things	53.55	4.0	glimpse	0
54.4	0.85	0.5803359746932983	0.2803071737289429	1.0	2.0	piano	'V_nV'	piano__10.jpg	1.0	2.0	Musical_Inst	Nonliving_Things	54.4	4.0	glimpse	0
55.25	0.85	0.5803359746932983	0.2803071737289429	1.0	2.0	piano	'V_nV'	piano__10.jpg	1.0	2.0	Musical_Inst	Nonliving_Things	55.25	4.0	glimpse	0
56.1	0.85	0.6803414821624756	1.0703125	1.0	1.0	pelican	'V_nV'	pelican_8.jpg	1.0	1.0	Birds	Living_Things	56.1	5.0	unconscious	0
56.95	0.85	0.6803414821624756	1.0703125	1.0	1.0	pelican	'V_nV'	pelican_8.jpg	1.0	1.0	Birds	Living_Things	56.95	5.0	unconscious	0
57.8	0.85	0.6803414821624756	1.0703125	1.0	1.0	pelican	'V_nV'	pelican_8.jpg	1.0	1.0	Birds	Living_Things	57.8	5.0	unconscious	0
58.65	0.85	0.6803414821624756	1.0703125	1.0	1.0	pelican	'V_nV'	pelican_8.jpg	1.0	1.0	Birds	Living_Things	58.65	5.0	unconscious	0
59.5	0.85	0.6803414821624756	1.0703125	1.0	1.0	pelican	'V_nV'	pelican_8.jpg	1.0	1.0	Birds	Living_Things	59.5	5.0	unconscious	0
60.35	0.85	0.6803414821624756	1.0703125	1.0	1.0	pelican	'V_nV'	pelican_8.jpg	1.0	1.0	Birds	Living_Things	60.35	5.0	unconscious	0
61.2	0.85	0.6803414821624756	1.0703125	1.0	1.0	pelican	'V_nV'	pelican_8.jpg	1.0	1.0	Birds	Living_Things	61.2	5.0	unconscious	0
62.05	0.85	0.6803414821624756	1.0703125	1.0	1.0	pelican	'V_nV'	pelican_8.jpg	1.0	1.0	Birds	Living_Things	62.05	5.0	unconscious	1
62.9	0.85	0.6803414821624756	1.0703125	1.0	1.0	pelican	'V_nV'	pelican_8.jpg	1.0	1.0	Birds	Living_Things	62.9	5.0	unconscious	1
63.75	0.85	0.6803414821624756	1.0703125	1.0	1.0	pelican	'V_nV'	pelican_8.jpg	1.0	1.0	Birds	Living_Things	63.75	5.0	unconscious	1
64.6	0.85	0.6803414821624756	1.0703125	1.0	1.0	pelican	'V_nV'	pelican_8.jpg	1.0	1.0	Birds	Living_Things	64.6	5.0	unconscious	0
65.45	0.85	0.6803414821624756	1.0703125	1.0	1.0	pelican	'V_nV'	pelican_8.jpg	1.0	1.0	Birds	Living_Things	65.45	5.0	unconscious	0
66.3	0.85	0.6803414821624756	1.0703125	1.0	1.0	pelican	'V_nV'	pelican_8.jpg	1.0	1.0	Birds	Living_Things	66.3	5.0	unconscious	0
67.14999999999999	0.85	0.6803414821624756	1.0703125	1.0	1.0	pelican	'V_nV'	pelican_8.jpg	1.0	1.0	Birds	Living_Things	67.14999999999999	5.0	unconscious	0
68.0	0.85	0.6803414821624756	1.0703125	1.0	1.0	pelican	'V_nV'	pelican_8.jpg	1.0	1.0	Birds	Living_Things	68.0	5.0	unconscious	0
68.85	0.85	0.6803414821624756	1.0703125	1.0	1.0	pelican	'V_nV'	pelican_8.jpg	1.0	1.0	Birds	Living_Things	68.85	5.0	unconscious	0
69.7	0.85	0.6803414821624756	1.0703125	1.0	1.0	pelican	'V_nV'	pelican_8.jpg	1.0	1.0	Birds	Living_Things	69.7	5.0	unconscious	0
70.55	0.85	0.6803171634674072	0.9203110933303832	1.0	2.0	bus	'V_nV'	bus_7.jpg	3.0	2.0	Vehicles	Nonliving_Things	70.55	6.0	conscious	0
71.39999999999999	0.85	0.6803171634674072	0.9203110933303832	1.0	2.0	bus	'V_nV'	bus_7.jpg	3.0	2.0	Vehicles	Nonliving_Things	71.39999999999999	6.0	conscious	0
72.25	0.85	0.6803171634674072	0.9203110933303832	1.0	2.0	bus	'V_nV'	bus_7.jpg	3.0	2.0	Vehicles	Nonliving_Things	72.25	6.0	conscious	0
73.1	0.85	0.6803171634674072	0.9203110933303832	1.0	2.0	bus	'V_nV'	bus_7.jpg	3.0	2.0	Vehicles	Nonliving_Things	73.1	6.0	conscious	0
73.95	0.85	0.6803171634674072	0.9203110933303832	1.0	2.0	bus	'V_nV'	bus_7.jpg	3.0	2.0	Vehicles	Nonliving_Things	73.95	6.0	conscious	0
74.8	0.85	0.6803171634674072	0.9203110933303832	1.0	2.0	bus	'V_nV'	bus_7.jpg	3.0	2.0	Vehicles	Nonliving_Things	74.8	6.0	conscious	0
75.64999999999999	0.85	0.6803171634674072	0.9203110933303832	1.0	2.0	bus	'V_nV'	bus_7.jpg	3.0	2.0	Vehicles	Nonliving_Things	75.64999999999999	6.0	conscious	0
76.5	0.85	0.6803171634674072	0.9203110933303832	1.0	2.0	bus	'V_nV'	bus_7.jpg	3.0	2.0	Vehicles	Nonliving_Things	76.5	6.0	conscious	1
77.35	0.85	0.6803171634674072	0.9203110933303832	1.0	2.0	bus	'V_nV'	bus_7.jpg	3.0	2.0	Vehicles	Nonliving_Things	77.35	6.0	conscious	1
78.2	0.85	0.6803171634674072	0.9203110933303832	1.0	2.0	bus	'V_nV'	bus_7.jpg	3.0	2.0	Vehicles	Nonliving_Things	78.2	6.0	conscious	1
79.05	0.85	0.6803171634674072	0.9203110933303832	1.0	2.0	bus	'V_nV'	bus_7.jpg	3.0	2.0	Vehicles	Nonliving_Things	79.05	6.0	conscious	0
79.89999999999999	0.85	0.6803171634674072	0.9203110933303832	1.0	2.0	bus	'V_nV'	bus_7.jpg	3.0	2.0	Vehicles	Nonliving_Things	79.89999999999999	6.0	conscious	0
80.75	0.85	0.6803171634674072	0.9203110933303832	1.0	2.0	bus	'V_nV'	bus_7.jpg	3.0	2.0	Vehicles	Nonliving_Things	80.75	6.0	conscious	0
81.6	0.85	0.6803171634674072	0.9203110933303832	1.0	2.0	bus	'V_nV'	bus_7.jpg	3.0	2.0	Vehicles	Nonliving_Things	81.6	6.0	conscious	0
82.45	0.85	0.6803171634674072	0.9203110933303832	1.0	2.0	bus	'V_nV'	bus_7.jpg	3.0	2.0	Vehicles	Nonliving_Things	82.45	6.0	conscious	0
83.3	0.85	0.6803171634674072	0.9203110933303832	1.0	2.0	bus	'V_nV'	bus_7.jpg	3.0	2.0	Vehicles	Nonliving_Things	83.3	6.0	conscious	0
84.14999999999999	0.85	0.7201926708221436	0.2503192722797394	0.0	2.0	penguin	'nV_V'	penguin_0.jpg	1.0	1.0	Birds	Living_Things	84.14999999999999	7.0	unconscious	0
85.0	0.85	0.7201926708221436	0.2503192722797394	0.0	2.0	penguin	'nV_V'	penguin_0.jpg	1.0	1.0	Birds	Living_Things	85.0	7.0	unconscious	0
85.85	0.85	0.7201926708221436	0.2503192722797394	0.0	2.0	penguin	'nV_V'	penguin_0.jpg	1.0	1.0	Birds	Living_Things	85.85	7.0	unconscious	0
86.7	0.85	0.7201926708221436	0.2503192722797394	0.0	2.0	penguin	'nV_V'	penguin_0.jpg	1.0	1.0	Birds	Living_Things	86.7	7.0	unconscious	0
87.55	0.85	0.7201926708221436	0.2503192722797394	0.0	2.0	penguin	'nV_V'	penguin_0.jpg	1.0	1.0	Birds	Living_Things	87.55	7.0	unconscious	0
88.39999999999999	0.85	0.7201926708221436	0.2503192722797394	0.0	2.0	penguin	'nV_V'	penguin_0.jpg	1.0	1.0	Birds	Living_Things	88.39999999999999	7.0	unconscious	0
89.25	0.85	0.7201926708221436	0.2503192722797394	0.0	2.0	penguin	'nV_V'	penguin_0.jpg	1.0	1.0	Birds	Living_Things	89.25	7.0	unconscious	1
90.1	0.85	0.7201926708221436	0.2503192722797394	0.0	2.0	penguin	'nV_V'	penguin_0.jpg	1.0	1.0	Birds	Living_Things	90.1	7.0	unconscious	1
90.95	0.85	0.7201926708221436	0.2503192722797394	0.0	2.0	penguin	'nV_V'	penguin_0.jpg	1.0	1.0	Birds	Living_Things	90.95	7.0	unconscious	1
91.8	0.85	0.7201926708221436	0.2503192722797394	0.0	2.0	penguin	'nV_V'	penguin_0.jpg	1.0	1.0	Birds	Living_Things	91.8	7.0	unconscious	1
92.65	0.85	0.7201926708221436	0.2503192722797394	0.0	2.0	penguin	'nV_V'	penguin_0.jpg	1.0	1.0	Birds	Living_Things	92.65	7.0	unconscious	0
93.5	0.85	0.7201926708221436	0.2503192722797394	0.0	2.0	penguin	'nV_V'	penguin_0.jpg	1.0	1.0	Birds	Living_Things	93.5	7.0	unconscious	0
94.35	0.85	0.7201926708221436	0.2503192722797394	0.0	2.0	penguin	'nV_V'	penguin_0.jpg	1.0	1.0	Birds	Living_Things	94.35	7.0	unconscious	0
95.2	0.85	0.7201926708221436	0.2503192722797394	0.0	2.0	penguin	'nV_V'	penguin_0.jpg	1.0	1.0	Birds	Living_Things	95.2	7.0	unconscious	0
96.05	0.85	0.7201926708221436	0.2503192722797394	0.0	2.0	penguin	'nV_V'	penguin_0.jpg	1.0	1.0	Birds	Living_Things	96.05	7.0	unconscious	0
96.9	0.85	0.7201926708221436	0.2503192722797394	0.0	2.0	penguin	'nV_V'	penguin_0.jpg	1.0	1.0	Birds	Living_Things	96.9	7.0	unconscious	0
97.75	0.85	0.5703118443489075	0.4203180372714996	0.0	2.0	lioness	'nV_V'	lioness_25.jpg	3.0	1.0	Animals	Living_Things	97.75	8.0	unconscious	0
98.6	0.85	0.5703118443489075	0.4203180372714996	0.0	2.0	lioness	'nV_V'	lioness_25.jpg	3.0	1.0	Animals	Living_Things	98.6	8.0	unconscious	0
99.45	0.85	0.5703118443489075	0.4203180372714996	0.0	2.0	lioness	'nV_V'	lioness_25.jpg	3.0	1.0	Animals	Living_Things	99.45	8.0	unconscious	0
100.3	0.85	0.5703118443489075	0.4203180372714996	0.0	2.0	lioness	'nV_V'	lioness_25.jpg	3.0	1.0	Animals	Living_Things	100.3	8.0	unconscious	0
101.15	0.85	0.5703118443489075	0.4203180372714996	0.0	2.0	lioness	'nV_V'	lioness_25.jpg	3.0	1.0	Animals	Living_Things	101.15	8.0	unconscious	0
102.0	0.85	0.5703118443489075	0.4203180372714996	0.0	2.0	lioness	'nV_V'	lioness_25.jpg	3.0	1.0	Animals	Living_Things	102.0	8.0	unconscious	0
102.85	0.85	0.5703118443489075	0.4203180372714996	0.0	2.0	lioness	'nV_V'	lioness_25.jpg	3.0	1.0	Animals	Living_Things	102.85	8.0	unconscious	1
103.7	0.85	0.5703118443489075	0.4203180372714996	0.0	2.0	lioness	'nV_V'	lioness_25.jpg	3.0	1.0	Animals	Living_Things	103.7	8.0	unconscious	1
104.55	0.85	0.5703118443489075	0.4203180372714996	0.0	2.0	lioness	'nV_V'	lioness_25.jpg	3.0	1.0	Animals	Living_Things	104.55	8.0	unconscious	1
105.4	0.85	0.5703118443489075	0.4203180372714996	0.0	2.0	lioness	'nV_V'	lioness_25.jpg	3.0	1.0	Animals	Living_Things	105.4	8.0	unconscious	1
106.25	0.85	0.5703118443489075	0.4203180372714996	0.0	2.0	lioness	'nV_V'	lioness_25.jpg	3.0	1.0	Animals	Living_Things	106.25	8.0	unconscious	0
107.1	0.85	0.5703118443489075	0.4203180372714996	0.0	2.0	lioness	'nV_V'	lioness_25.jpg	3.0	1.0	Animals	Living_Things	107.1	8.0	unconscious	0
107.95	0.85	0.5703118443489075	0.4203180372714996	0.0	2.0	lioness	'nV_V'	lioness_25.jpg	3.0	1.0	Animals	Living_Things	107.95	8.0	unconscious	0
108.8	0.85	0.5703118443489075	0.4203180372714996	0.0	2.0	lioness	'nV_V'	lioness_25.jpg	3.0	1.0	Animals	Living_Things	108.8	8.0	unconscious	0
109.65	0.85	0.5703118443489075	0.4203180372714996	0.0	2.0	lioness	'nV_V'	lioness_25.jpg	3.0	1.0	Animals	Living_Things	109.65	8.0	unconscious	0
110.5	0.85	0.5703118443489075	0.4203180372714996	0.0	2.0	lioness	'nV_V'	lioness_25.jpg	3.0	1.0	Animals	Living_Things	110.5	8.0	unconscious	0
111.35	0.85	0.6202993988990784	1.4503048658370972	1.0	1.0	chair	'nV_V'	chair_2.jpg	4.0	1.0	Furniture	Nonliving_Things	111.35	9.0	glimpse	0
112.2	0.85	0.6202993988990784	1.4503048658370972	1.0	1.0	chair	'nV_V'	chair_2.jpg	4.0	1.0	Furniture	Nonliving_Things	112.2	9.0	glimpse	0
113.05	0.85	0.6202993988990784	1.4503048658370972	1.0	1.0	chair	'nV_V'	chair_2.jpg	4.0	1.0	Furniture	Nonliving_Things	113.05	9.0	glimpse	0
113.9	0.85	0.6202993988990784	1.4503048658370972	1.0	1.0	chair	'nV_V'	chair_2.jpg	4.0	1.0	Furniture	Nonliving_Things	113.9	9.0	glimpse	0
114.75	0.85	0.6202993988990784	1.4503048658370972	1.0	1.0	chair	'nV_V'	chair_2.jpg	4.0	1.0	Furniture	Nonliving_Things	114.75	9.0	glimpse	0
115.6	0.85	0.6202993988990784	1.4503048658370972	1.0	1.0	chair	'nV_V'	chair_2.jpg	4.0	1.0	Furniture	Nonliving_Things	115.6	9.0	glimpse	0
116.45	0.85	0.6202993988990784	1.4503048658370972	1.0	1.0	chair	'nV_V'	chair_2.jpg	4.0	1.0	Furniture	Nonliving_Things	116.45	9.0	glimpse	1
117.3	0.85	0.6202993988990784	1.4503048658370972	1.0	1.0	chair	'nV_V'	chair_2.jpg	4.0	1.0	Furniture	Nonliving_Things	117.3	9.0	glimpse	1
118.15	0.85	0.6202993988990784	1.4503048658370972	1.0	1.0	chair	'nV_V'	chair_2.jpg	4.0	1.0	Furniture	Nonliving_Things	118.15	9.0	glimpse	1
119.0	0.85	0.6202993988990784	1.4503048658370972	1.0	1.0	chair	'nV_V'	chair_2.jpg	4.0	1.0	Furniture	Nonliving_Things	119.0	9.0	glimpse	1
119.85	0.85	0.6202993988990784	1.4503048658370972	1.0	1.0	chair	'nV_V'	chair_2.jpg	4.0	1.0	Furniture	Nonliving_Things	119.85	9.0	glimpse	0
120.7	0.85	0.6202993988990784	1.4503048658370972	1.0	1.0	chair	'nV_V'	chair_2.jpg	4.0	1.0	Furniture	Nonliving_Things	120.7	9.0	glimpse	0
121.55	0.85	0.6202993988990784	1.4503048658370972	1.0	1.0	chair	'nV_V'	chair_2.jpg	4.0	1.0	Furniture	Nonliving_Things	121.55	9.0	glimpse	0
122.4	0.85	0.6202993988990784	1.4503048658370972	1.0	1.0	chair	'nV_V'	chair_2.jpg	4.0	1.0	Furniture	Nonliving_Things	122.4	9.0	glimpse	0
123.25	0.85	0.6202993988990784	1.4503048658370972	1.0	1.0	chair	'nV_V'	chair_2.jpg	4.0	1.0	Furniture	Nonliving_Things	123.25	9.0	glimpse	0
124.1	0.85	0.6202993988990784	1.4503048658370972	1.0	1.0	chair	'nV_V'	chair_2.jpg	4.0	1.0	Furniture	Nonliving_Things	124.1	9.0	glimpse	0
124.95	0.85	0.9703037738800048	0.9603100419044496	0.0	2.0	turtle	'nV_V'	turtle_0.jpg	3.0	1.0	Animals	Living_Things	124.95	10.0	unconscious	0
125.8	0.85	0.9703037738800048	0.9603100419044496	0.0	2.0	turtle	'nV_V'	turtle_0.jpg	3.0	1.0	Animals	Living_Things	125.8	10.0	unconscious	0
126.65	0.85	0.9703037738800048	0.9603100419044496	0.0	2.0	turtle	'nV_V'	turtle_0.jpg	3.0	1.0	Animals	Living_Things	126.65	10.0	unconscious	0
127.5	0.85	0.9703037738800048	0.9603100419044496	0.0	2.0	turtle	'nV_V'	turtle_0.jpg	3.0	1.0	Animals	Living_Things	127.5	10.0	unconscious	0
128.35	0.85	0.9703037738800048	0.9603100419044496	0.0	2.0	turtle	'nV_V'	turtle_0.jpg	3.0	1.0	Animals	Living_Things	128.35	10.0	unconscious	0
129.2	0.85	0.9703037738800048	0.9603100419044496	0.0	2.0	turtle	'nV_V'	turtle_0.jpg	3.0	1.0	Animals	Living_Things	129.2	10.0	unconscious	0
130.04999999999998	0.85	0.9703037738800048	0.9603100419044496	0.0	2.0	turtle	'nV_V'	turtle_0.jpg	3.0	1.0	Animals	Living_Things	130.04999999999998	10.0	unconscious	1
130.9	0.85	0.9703037738800048	0.9603100419044496	0.0	2.0	turtle	'nV_V'	turtle_0.jpg	3.0	1.0	Animals	Living_Things	130.9	10.0	unconscious	1
131.75	0.85	0.9703037738800048	0.9603100419044496	0.0	2.0	turtle	'nV_V'	turtle_0.jpg	3.0	1.0	Animals	Living_Things	131.75	10.0	unconscious	1
132.6	0.85	0.9703037738800048	0.9603100419044496	0.0	2.0	turtle	'nV_V'	turtle_0.jpg	3.0	1.0	Animals	Living_Things	132.6	10.0	unconscious	1
133.45	0.85	0.9703037738800048	0.9603100419044496	0.0	2.0	turtle	'nV_V'	turtle_0.jpg	3.0	1.0	Animals	Living_Things	133.45	10.0	unconscious	0
134.29999999999998	0.85	0.9703037738800048	0.9603100419044496	0.0	2.0	turtle	'nV_V'	turtle_0.jpg	3.0	1.0	Animals	Living_Things	134.29999999999998	10.0	unconscious	0
135.15	0.85	0.9703037738800048	0.9603100419044496	0.0	2.0	turtle	'nV_V'	turtle_0.jpg	3.0	1.0	Animals	Living_Things	135.15	10.0	unconscious	0
136.0	0.85	0.9703037738800048	0.9603100419044496	0.0	2.0	turtle	'nV_V'	turtle_0.jpg	3.0	1.0	Animals	Living_Things	136.0	10.0	unconscious	0
136.85	0.85	0.9703037738800048	0.9603100419044496	0.0	2.0	turtle	'nV_V'	turtle_0.jpg	3.0	1.0	Animals	Living_Things	136.85	10.0	unconscious	0
137.7	0.85	0.9703037738800048	0.9603100419044496	0.0	2.0	turtle	'nV_V'	turtle_0.jpg	3.0	1.0	Animals	Living_Things	137.7	10.0	unconscious	0
138.54999999999998	0.85	0.7603186368942261	0.7003315687179565	1.0	2.0	lynx	'nV_V'	lynx_2.jpg	4.0	2.0	Animals	Living_Things	138.54999999999998	11.0	conscious	0
139.4	0.85	0.7603186368942261	0.7003315687179565	1.0	2.0	lynx	'nV_V'	lynx_2.jpg	4.0	2.0	Animals	Living_Things	139.4	11.0	conscious	0
140.25	0.85	0.7603186368942261	0.7003315687179565	1.0	2.0	lynx	'nV_V'	lynx_2.jpg	4.0	2.0	Animals	Living_Things	140.25	11.0	conscious	0
141.1	0.85	0.7603186368942261	0.7003315687179565	1.0	2.0	lynx	'nV_V'	lynx_2.jpg	4.0	2.0	Animals	Living_Things	141.1	11.0	conscious	0
141.95	0.85	0.7603186368942261	0.7003315687179565	1.0	2.0	lynx	'nV_V'	lynx_2.jpg	4.0	2.0	Animals	Living_Things	141.95	11.0	conscious	0
142.79999999999998	0.85	0.7603186368942261	0.7003315687179565	1.0	2.0	lynx	'nV_V'	lynx_2.jpg	4.0	2.0	Animals	Living_Things	142.79999999999998	11.0	conscious	0
143.65	0.85	0.7603186368942261	0.7003315687179565	1.0	2.0	lynx	'nV_V'	lynx_2.jpg	4.0	2.0	Animals	Living_Things	143.65	11.0	conscious	1
144.5	0.85	0.7603186368942261	0.7003315687179565	1.0	2.0	lynx	'nV_V'	lynx_2.jpg	4.0	2.0	Animals	Living_Things	144.5	11.0	conscious	1
145.35	0.85	0.7603186368942261	0.7003315687179565	1.0	2.0	lynx	'nV_V'	lynx_2.jpg	4.0	2.0	Animals	Living_Things	145.35	11.0	conscious	1
146.2	0.85	0.7603186368942261	0.7003315687179565	1.0	2.0	lynx	'nV_V'	lynx_2.jpg	4.0	2.0	Animals	Living_Things	146.2	11.0	conscious	0
147.04999999999998	0.85	0.7603186368942261	0.7003315687179565	1.0	2.0	lynx	'nV_V'	lynx_2.jpg	4.0	2.0	Animals	Living_Things	147.04999999999998	11.0	conscious	0
147.9	0.85	0.7603186368942261	0.7003315687179565	1.0	2.0	lynx	'nV_V'	lynx_2.jpg	4.0	2.0	Animals	Living_Things	147.9	11.0	conscious	0
148.75	0.85	0.7603186368942261	0.7003315687179565	1.0	2.0	lynx	'nV_V'	lynx_2.jpg	4.0	2.0	Animals	Living_Things	148.75	11.0	conscious	0
149.6	0.85	0.7603186368942261	0.7003315687179565	1.0	2.0	lynx	'nV_V'	lynx_2.jpg	4.0	2.0	Animals	Living_Things	149.6	11.0	conscious	0
150.45	0.85	0.7603186368942261	0.7003315687179565	1.0	2.0	lynx	'nV_V'	lynx_2.jpg	4.0	2.0	Animals	Living_Things	150.45	11.0	conscious	0
151.29999999999998	0.85	0.8303107619285583	0.4101904928684234	0.0	1.0	manatee	'V_nV'	manatee_24.jpg	2.0	2.0	Marine_creatures	Living_Things	151.29999999999998	12.0	unconscious	0
152.15	0.85	0.8303107619285583	0.4101904928684234	0.0	1.0	manatee	'V_nV'	manatee_24.jpg	2.0	2.0	Marine_creatures	Living_Things	152.15	12.0	unconscious	0
153.0	0.85	0.8303107619285583	0.4101904928684234	0.0	1.0	manatee	'V_nV'	manatee_24.jpg	2.0	2.0	Marine_creatures	Living_Things	153.0	12.0	unconscious	0
153.85	0.85	0.8303107619285583	0.4101904928684234	0.0	1.0	manatee	'V_nV'	manatee_24.jpg	2.0	2.0	Marine_creatures	Living_Things	153.85	12.0	unconscious	0
154.7	0.85	0.8303107619285583	0.4101904928684234	0.0	1.0	manatee	'V_nV'	manatee_24.jpg	2.0	2.0	Marine_creatures	Living_Things	154.7	12.0	unconscious	0
155.54999999999998	0.85	0.8303107619285583	0.4101904928684234	0.0	1.0	manatee	'V_nV'	manatee_24.jpg	2.0	2.0	Marine_creatures	Living_Things	155.54999999999998	12.0	unconscious	0
156.4	0.85	0.8303107619285583	0.4101904928684234	0.0	1.0	manatee	'V_nV'	manatee_24.jpg	2.0	2.0	Marine_creatures	Living_Things	156.4	12.0	unconscious	0
157.25	0.85	0.8303107619285583	0.4101904928684234	0.0	1.0	manatee	'V_nV'	manatee_24.jpg	2.0	2.0	Marine_creatures	Living_Things	157.25	12.0	unconscious	1
158.1	0.85	0.8303107619285583	0.4101904928684234	0.0	1.0	manatee	'V_nV'	manatee_24.jpg	2.0	2.0	Marine_creatures	Living_Things	158.1	12.0	unconscious	1
158.95	0.85	0.8303107619285583	0.4101904928684234	0.0	1.0	manatee	'V_nV'	manatee_24.jpg	2.0	2.0	Marine_creatures	Living_Things	158.95	12.0	unconscious	1
159.79999999999998	0.85	0.8303107619285583	0.4101904928684234	0.0	1.0	manatee	'V_nV'	manatee_24.jpg	2.0	2.0	Marine_creatures	Living_Things	159.79999999999998	12.0	unconscious	0
160.65	0.85	0.8303107619285583	0.4101904928684234	0.0	1.0	manatee	'V_nV'	manatee_24.jpg	2.0	2.0	Marine_creatures	Living_Things	160.65	12.0	unconscious	0
161.5	0.85	0.8303107619285583	0.4101904928684234	0.0	1.0	manatee	'V_nV'	manatee_24.jpg	2.0	2.0	Marine_creatures	Living_Things	161.5	12.0	unconscious	0
162.35	0.85	0.8303107619285583	0.4101904928684234	0.0	1.0	manatee	'V_nV'	manatee_24.jpg	2.0	2.0	Marine_creatures	Living_Things	162.35	12.0	unconscious	0
163.2	0.85	0.8303107619285583	0.4101904928684234	0.0	1.0	manatee	'V_nV'	manatee_24.jpg	2.0	2.0	Marine_creatures	Living_Things	163.2	12.0	unconscious	0
164.04999999999998	0.85	0.4403067529201508	0.3701863288879394	1.0	1.0	magpie	'V_nV'	magpie_8.jpg	5.0	1.0	Birds	Living_Things	164.04999999999998	13.0	unconscious	0
164.9	0.85	0.4403067529201508	0.3701863288879394	1.0	1.0	magpie	'V_nV'	magpie_8.jpg	5.0	1.0	Birds	Living_Things	164.9	13.0	unconscious	0
165.75	0.85	0.4403067529201508	0.3701863288879394	1.0	1.0	magpie	'V_nV'	magpie_8.jpg	5.0	1.0	Birds	Living_Things	165.75	13.0	unconscious	0
166.6	0.85	0.4403067529201508	0.3701863288879394	1.0	1.0	magpie	'V_nV'	magpie_8.jpg	5.0	1.0	Birds	Living_Things	166.6	13.0	unconscious	0
167.45	0.85	0.4403067529201508	0.3701863288879394	1.0	1.0	magpie	'V_nV'	magpie_8.jpg	5.0	1.0	Birds	Living_Things	167.45	13.0	unconscious	0
168.29999999999998	0.85	0.4403067529201508	0.3701863288879394	1.0	1.0	magpie	'V_nV'	magpie_8.jpg	5.0	1.0	Birds	Living_Things	168.29999999999998	13.0	unconscious	0
169.15	0.85	0.4403067529201508	0.3701863288879394	1.0	1.0	magpie	'V_nV'	magpie_8.jpg	5.0	1.0	Birds	Living_Things	169.15	13.0	unconscious	0
170.0	0.85	0.4403067529201508	0.3701863288879394	1.0	1.0	magpie	'V_nV'	magpie_8.jpg	5.0	1.0	Birds	Living_Things	170.0	13.0	unconscious	1
170.85	0.85	0.4403067529201508	0.3701863288879394	1.0	1.0	magpie	'V_nV'	magpie_8.jpg	5.0	1.0	Birds	Living_Things	170.85	13.0	unconscious	1
171.7	0.85	0.4403067529201508	0.3701863288879394	1.0	1.0	magpie	'V_nV'	magpie_8.jpg	5.0	1.0	Birds	Living_Things	171.7	13.0	unconscious	1
172.54999999999998	0.85	0.4403067529201508	0.3701863288879394	1.0	1.0	magpie	'V_nV'	magpie_8.jpg	5.0	1.0	Birds	Living_Things	172.54999999999998	13.0	unconscious	0
173.4	0.85	0.4403067529201508	0.3701863288879394	1.0	1.0	magpie	'V_nV'	magpie_8.jpg	5.0	1.0	Birds	Living_Things	173.4	13.0	unconscious	0
174.25	0.85	0.4403067529201508	0.3701863288879394	1.0	1.0	magpie	'V_nV'	magpie_8.jpg	5.0	1.0	Birds	Living_Things	174.25	13.0	unconscious	0
175.1	0.85	0.4403067529201508	0.3701863288879394	1.0	1.0	magpie	'V_nV'	magpie_8.jpg	5.0	1.0	Birds	Living_Things	175.1	13.0	unconscious	0
175.95	0.85	0.4403067529201508	0.3701863288879394	1.0	1.0	magpie	'V_nV'	magpie_8.jpg	5.0	1.0	Birds	Living_Things	175.95	13.0	unconscious	0
176.79999999999998	0.85	0.4403067529201508	0.3701863288879394	1.0	1.0	magpie	'V_nV'	magpie_8.jpg	5.0	1.0	Birds	Living_Things	176.79999999999998	13.0	unconscious	0
177.65	0.85	0.4403067529201508	0.3701863288879394	1.0	1.0	magpie	'V_nV'	magpie_8.jpg	5.0	1.0	Birds	Living_Things	177.65	13.0	unconscious	0
178.5	0.85	0.4403067529201508	0.3701863288879394	1.0	1.0	magpie	'V_nV'	magpie_8.jpg	5.0	1.0	Birds	Living_Things	178.5	13.0	unconscious	0
179.35	0.85	0.4403067529201508	0.3701863288879394	1.0	1.0	magpie	'V_nV'	magpie_8.jpg	5.0	1.0	Birds	Living_Things	179.35	13.0	unconscious	0
180.2	0.85	0.4403067529201508	0.3701863288879394	1.0	1.0	magpie	'V_nV'	magpie_8.jpg	5.0	1.0	Birds	Living_Things	180.2	13.0	unconscious	0
181.05	0.85	0.6503129005432129	0.4703147411346436	1.0	1.0	church	'nV_V'	church_20.jpg	7.0	1.0	Buildings	Nonliving_Things	181.05	14.0	conscious	0
181.9	0.85	0.6503129005432129	0.4703147411346436	1.0	1.0	church	'nV_V'	church_20.jpg	7.0	1.0	Buildings	Nonliving_Things	181.9	14.0	conscious	0
182.75	0.85	0.6503129005432129	0.4703147411346436	1.0	1.0	church	'nV_V'	church_20.jpg	7.0	1.0	Buildings	Nonliving_Things	182.75	14.0	conscious	0
183.6	0.85	0.6503129005432129	0.4703147411346436	1.0	1.0	church	'nV_V'	church_20.jpg	7.0	1.0	Buildings	Nonliving_Things	183.6	14.0	conscious	0
184.45	0.85	0.6503129005432129	0.4703147411346436	1.0	1.0	church	'nV_V'	church_20.jpg	7.0	1.0	Buildings	Nonliving_Things	184.45	14.0	conscious	0
185.3	0.85	0.6503129005432129	0.4703147411346436	1.0	1.0	church	'nV_V'	church_20.jpg	7.0	1.0	Buildings	Nonliving_Things	185.3	14.0	conscious	0
186.15	0.85	0.6503129005432129	0.4703147411346436	1.0	1.0	church	'nV_V'	church_20.jpg	7.0	1.0	Buildings	Nonliving_Things	186.15	14.0	conscious	1
187.0	0.85	0.6503129005432129	0.4703147411346436	1.0	1.0	church	'nV_V'	church_20.jpg	7.0	1.0	Buildings	Nonliving_Things	187.0	14.0	conscious	1
187.85	0.85	0.6503129005432129	0.4703147411346436	1.0	1.0	church	'nV_V'	church_20.jpg	7.0	1.0	Buildings	Nonliving_Things	187.85	14.0	conscious	1
188.7	0.85	0.6503129005432129	0.4703147411346436	1.0	1.0	church	'nV_V'	church_20.jpg	7.0	1.0	Buildings	Nonliving_Things	188.7	14.0	conscious	1
189.55	0.85	0.6503129005432129	0.4703147411346436	1.0	1.0	church	'nV_V'	church_20.jpg	7.0	1.0	Buildings	Nonliving_Things	189.55	14.0	conscious	0
190.4	0.85	0.6503129005432129	0.4703147411346436	1.0	1.0	church	'nV_V'	church_20.jpg	7.0	1.0	Buildings	Nonliving_Things	190.4	14.0	conscious	0
191.25	0.85	0.6503129005432129	0.4703147411346436	1.0	1.0	church	'nV_V'	church_20.jpg	7.0	1.0	Buildings	Nonliving_Things	191.25	14.0	conscious	0
192.1	0.85	0.6503129005432129	0.4703147411346436	1.0	1.0	church	'nV_V'	church_20.jpg	7.0	1.0	Buildings	Nonliving_Things	192.1	14.0	conscious	0
192.95	0.85	0.6503129005432129	0.4703147411346436	1.0	1.0	church	'nV_V'	church_20.jpg	7.0	1.0	Buildings	Nonliving_Things	192.95	14.0	conscious	0
193.8	0.85	0.6503129005432129	0.4703147411346436	1.0	1.0	church	'nV_V'	church_20.jpg	7.0	1.0	Buildings	Nonliving_Things	193.8	14.0	conscious	0
194.65	0.85	0.6503129005432129	0.4703147411346436	1.0	1.0	church	'nV_V'	church_20.jpg	7.0	1.0	Buildings	Nonliving_Things	194.65	14.0	conscious	0
195.5	0.85	0.8602623343467712	0.3502083420753479	1.0	2.0	car	'V_nV'	car_12.jpg	5.0	2.0	Vehicles	Nonliving_Things	195.5	15.0	conscious	0
196.35	0.85	0.8602623343467712	0.3502083420753479	1.0	2.0	car	'V_nV'	car_12.jpg	5.0	2.0	Vehicles	Nonliving_Things	196.35	15.0	conscious	0
197.2	0.85	0.8602623343467712	0.3502083420753479	1.0	2.0	car	'V_nV'	car_12.jpg	5.0	2.0	Vehicles	Nonliving_Things	197.2	15.0	conscious	0
198.05	0.85	0.8602623343467712	0.3502083420753479	1.0	2.0	car	'V_nV'	car_12.jpg	5.0	2.0	Vehicles	Nonliving_Things	198.05	15.0	conscious	0
198.9	0.85	0.8602623343467712	0.3502083420753479	1.0	2.0	car	'V_nV'	car_12.jpg	5.0	2.0	Vehicles	Nonliving_Things	198.9	15.0	conscious	0
199.75	0.85	0.8602623343467712	0.3502083420753479	1.0	2.0	car	'V_nV'	car_12.jpg	5.0	2.0	Vehicles	Nonliving_Things	199.75	15.0	conscious	0
200.6	0.85	0.8602623343467712	0.3502083420753479	1.0	2.0	car	'V_nV'	car_12.jpg	5.0	2.0	Vehicles	Nonliving_Things	200.6	15.0	conscious	0
201.45	0.85	0.8602623343467712	0.3502083420753479	1.0	2.0	car	'V_nV'	car_12.jpg	5.0	2.0	Vehicles	Nonliving_Things	201.45	15.0	conscious	1
202.3	0.85	0.8602623343467712	0.3502083420753479	1.0	2.0	car	'V_nV'	car_12.jpg	5.0	2.0	Vehicles	Nonliving_Things	202.3	15.0	conscious	1
203.15	0.85	0.8602623343467712	0.3502083420753479	1.0	2.0	car	'V_nV'	car_12.jpg	5.0	2.0	Vehicles	Nonliving_Things	203.15	15.0	conscious	1
204.0	0.85	0.8602623343467712	0.3502083420753479	1.0	2.0	car	'V_nV'	car_12.jpg	5.0	2.0	Vehicles	Nonliving_Things	204.0	15.0	conscious	0
204.85	0.85	0.8602623343467712	0.3502083420753479	1.0	2.0	car	'V_nV'	car_12.jpg	5.0	2.0	Vehicles	Nonliving_Things	204.85	15.0	conscious	0
205.7	0.85	0.8602623343467712	0.3502083420753479	1.0	2.0	car	'V_nV'	car_12.jpg	5.0	2.0	Vehicles	Nonliving_Things	205.7	15.0	conscious	0
206.55	0.85	0.8602623343467712	0.3502083420753479	1.0	2.0	car	'V_nV'	car_12.jpg	5.0	2.0	Vehicles	Nonliving_Things	206.55	15.0	conscious	0
207.4	0.85	0.8602623343467712	0.3502083420753479	1.0	2.0	car	'V_nV'	car_12.jpg	5.0	2.0	Vehicles	Nonliving_Things	207.4	15.0	conscious	0
208.25	0.85	0.8602623343467712	0.3502083420753479	1.0	2.0	car	'V_nV'	car_12.jpg	5.0	2.0	Vehicles	Nonliving_Things	208.25	15.0	conscious	0
209.1	0.85	0.8602623343467712	0.3502083420753479	1.0	2.0	car	'V_nV'	car_12.jpg	5.0	2.0	Vehicles	Nonliving_Things	209.1	15.0	conscious	0
209.95	0.85	1.0803122520446775	0.4001794457435608	1.0	2.0	bedside-table	'V_nV'	bedside-table_22.jpg	3.0	2.0	Furniture	Nonliving_Things	209.95	16.0	conscious	0
210.8	0.85	1.0803122520446775	0.4001794457435608	1.0	2.0	bedside-table	'V_nV'	bedside-table_22.jpg	3.0	2.0	Furniture	Nonliving_Things	210.8	16.0	conscious	0
211.65	0.85	1.0803122520446775	0.4001794457435608	1.0	2.0	bedside-table	'V_nV'	bedside-table_22.jpg	3.0	2.0	Furniture	Nonliving_Things	211.65	16.0	conscious	0
212.5	0.85	1.0803122520446775	0.4001794457435608	1.0	2.0	bedside-table	'V_nV'	bedside-table_22.jpg	3.0	2.0	Furniture	Nonliving_Things	212.5	16.0	conscious	0
213.35	0.85	1.0803122520446775	0.4001794457435608	1.0	2.0	bedside-table	'V_nV'	bedside-table_22.jpg	3.0	2.0	Furniture	Nonliving_Things	213.35	16.0	conscious	0
214.2	0.85	1.0803122520446775	0.4001794457435608	1.0	2.0	bedside-table	'V_nV'	bedside-table_22.jpg	3.0	2.0	Furniture	Nonliving_Things	214.2	16.0	conscious	0
215.05	0.85	1.0803122520446775	0.4001794457435608	1.0	2.0	bedside-table	'V_nV'	bedside-table_22.jpg	3.0	2.0	Furniture	Nonliving_Things	215.05	16.0	conscious	0
215.9	0.85	1.0803122520446775	0.4001794457435608	1.0	2.0	bedside-table	'V_nV'	bedside-table_22.jpg	3.0	2.0	Furniture	Nonliving_Things	215.9	16.0	conscious	1
216.75	0.85	1.0803122520446775	0.4001794457435608	1.0	2.0	bedside-table	'V_nV'	bedside-table_22.jpg	3.0	2.0	Furniture	Nonliving_Things	216.75	16.0	conscious	1
217.6	0.85	1.0803122520446775	0.4001794457435608	1.0	2.0	bedside-table	'V_nV'	bedside-table_22.jpg	3.0	2.0	Furniture	Nonliving_Things	217.6	16.0	conscious	1
218.45	0.85	1.0803122520446775	0.4001794457435608	1.0	2.0	bedside-table	'V_nV'	bedside-table_22.jpg	3.0	2.0	Furniture	Nonliving_Things	218.45	16.0	conscious	0
219.3	0.85	1.0803122520446775	0.4001794457435608	1.0	2.0	bedside-table	'V_nV'	bedside-table_22.jpg	3.0	2.0	Furniture	Nonliving_Things	219.3	16.0	conscious	0
220.15	0.85	1.0803122520446775	0.4001794457435608	1.0	2.0	bedside-table	'V_nV'	bedside-table_22.jpg	3.0	2.0	Furniture	Nonliving_Things	220.15	16.0	conscious	0
221.0	0.85	1.0803122520446775	0.4001794457435608	1.0	2.0	bedside-table	'V_nV'	bedside-table_22.jpg	3.0	2.0	Furniture	Nonliving_Things	221.0	16.0	conscious	0
221.85	0.85	1.0803122520446775	0.4001794457435608	1.0	2.0	bedside-table	'V_nV'	bedside-table_22.jpg	3.0	2.0	Furniture	Nonliving_Things	221.85	16.0	conscious	0
222.7	0.85	0.9503871202468872	0.3703816533088684	0.0	2.0	narwhal	'nV_V'	narwhal_25.jpg	1.0	1.0	Marine_creatures	Living_Things	222.7	17.0	unconscious	0
223.55	0.85	0.9503871202468872	0.3703816533088684	0.0	2.0	narwhal	'nV_V'	narwhal_25.jpg	1.0	1.0	Marine_creatures	Living_Things	223.55	17.0	unconscious	0
224.4	0.85	0.9503871202468872	0.3703816533088684	0.0	2.0	narwhal	'nV_V'	narwhal_25.jpg	1.0	1.0	Marine_creatures	Living_Things	224.4	17.0	unconscious	0
225.25	0.85	0.9503871202468872	0.3703816533088684	0.0	2.0	narwhal	'nV_V'	narwhal_25.jpg	1.0	1.0	Marine_creatures	Living_Things	225.25	17.0	unconscious	0
226.1	0.85	0.9503871202468872	0.3703816533088684	0.0	2.0	narwhal	'nV_V'	narwhal_25.jpg	1.0	1.0	Marine_creatures	Living_Things	226.1	17.0	unconscious	0
226.95	0.85	0.9503871202468872	0.3703816533088684	0.0	2.0	narwhal	'nV_V'	narwhal_25.jpg	1.0	1.0	Marine_creatures	Living_Things	226.95	17.0	unconscious	0
227.8	0.85	0.9503871202468872	0.3703816533088684	0.0	2.0	narwhal	'nV_V'	narwhal_25.jpg	1.0	1.0	Marine_creatures	Living_Things	227.8	17.0	unconscious	0
228.65	0.85	0.9503871202468872	0.3703816533088684	0.0	2.0	narwhal	'nV_V'	narwhal_25.jpg	1.0	1.0	Marine_creatures	Living_Things	228.65	17.0	unconscious	1
229.5	0.85	0.9503871202468872	0.3703816533088684	0.0	2.0	narwhal	'nV_V'	narwhal_25.jpg	1.0	1.0	Marine_creatures	Living_Things	229.5	17.0	unconscious	1
230.35	0.85	0.9503871202468872	0.3703816533088684	0.0	2.0	narwhal	'nV_V'	narwhal_25.jpg	1.0	1.0	Marine_creatures	Living_Things	230.35	17.0	unconscious	1
231.2	0.85	0.9503871202468872	0.3703816533088684	0.0	2.0	narwhal	'nV_V'	narwhal_25.jpg	1.0	1.0	Marine_creatures	Living_Things	231.2	17.0	unconscious	0
232.05	0.85	0.9503871202468872	0.3703816533088684	0.0	2.0	narwhal	'nV_V'	narwhal_25.jpg	1.0	1.0	Marine_creatures	Living_Things	232.05	17.0	unconscious	0
232.9	0.85	0.9503871202468872	0.3703816533088684	0.0	2.0	narwhal	'nV_V'	narwhal_25.jpg	1.0	1.0	Marine_creatures	Living_Things	232.9	17.0	unconscious	0
233.75	0.85	0.9503871202468872	0.3703816533088684	0.0	2.0	narwhal	'nV_V'	narwhal_25.jpg	1.0	1.0	Marine_creatures	Living_Things	233.75	17.0	unconscious	0
234.6	0.85	0.9503871202468872	0.3703816533088684	0.0	2.0	narwhal	'nV_V'	narwhal_25.jpg	1.0	1.0	Marine_creatures	Living_Things	234.6	17.0	unconscious	0
235.45	0.85	0.660148024559021	0.9200960993766784	1.0	2.0	partridge	'nV_V'	partridge_18.jpg	4.0	2.0	Birds	Living_Things	235.45	18.0	conscious	0
236.3	0.85	0.660148024559021	0.9200960993766784	1.0	2.0	partridge	'nV_V'	partridge_18.jpg	4.0	2.0	Birds	Living_Things	236.3	18.0	conscious	0
237.15	0.85	0.660148024559021	0.9200960993766784	1.0	2.0	partridge	'nV_V'	partridge_18.jpg	4.0	2.0	Birds	Living_Things	237.15	18.0	conscious	0
238.0	0.85	0.660148024559021	0.9200960993766784	1.0	2.0	partridge	'nV_V'	partridge_18.jpg	4.0	2.0	Birds	Living_Things	238.0	18.0	conscious	0
238.85	0.85	0.660148024559021	0.9200960993766784	1.0	2.0	partridge	'nV_V'	partridge_18.jpg	4.0	2.0	Birds	Living_Things	238.85	18.0	conscious	0
239.7	0.85	0.660148024559021	0.9200960993766784	1.0	2.0	partridge	'nV_V'	partridge_18.jpg	4.0	2.0	Birds	Living_Things	239.7	18.0	conscious	0
240.55	0.85	0.660148024559021	0.9200960993766784	1.0	2.0	partridge	'nV_V'	partridge_18.jpg	4.0	2.0	Birds	Living_Things	240.55	18.0	conscious	1
241.4	0.85	0.660148024559021	0.9200960993766784	1.0	2.0	partridge	'nV_V'	partridge_18.jpg	4.0	2.0	Birds	Living_Things	241.4	18.0	conscious	1
242.25	0.85	0.660148024559021	0.9200960993766784	1.0	2.0	partridge	'nV_V'	partridge_18.jpg	4.0	2.0	Birds	Living_Things	242.25	18.0	conscious	1
243.1	0.85	0.660148024559021	0.9200960993766784	1.0	2.0	partridge	'nV_V'	partridge_18.jpg	4.0	2.0	Birds	Living_Things	243.1	18.0	conscious	1
243.95	0.85	0.660148024559021	0.9200960993766784	1.0	2.0	partridge	'nV_V'	partridge_18.jpg	4.0	2.0	Birds	Living_Things	243.95	18.0	conscious	0
244.8	0.85	0.660148024559021	0.9200960993766784	1.0	2.0	partridge	'nV_V'	partridge_18.jpg	4.0	2.0	Birds	Living_Things	244.8	18.0	conscious	0
245.65	0.85	0.660148024559021	0.9200960993766784	1.0	2.0	partridge	'nV_V'	partridge_18.jpg	4.0	2.0	Birds	Living_Things	245.65	18.0	conscious	0
246.5	0.85	0.660148024559021	0.9200960993766784	1.0	2.0	partridge	'nV_V'	partridge_18.jpg	4.0	2.0	Birds	Living_Things	246.5	18.0	conscious	0
247.35	0.85	0.660148024559021	0.9200960993766784	1.0	2.0	partridge	'nV_V'	partridge_18.jpg	4.0	2.0	Birds	Living_Things	247.35	18.0	conscious	0
248.2	0.85	0.7202973961830139	0.4903386831283569	0.0	2.0	owl	'nV_V'	owl_17.jpg	2.0	1.0	Birds	Living_Things	248.2	19.0	glimpse	0
249.05	0.85	0.7202973961830139	0.4903386831283569	0.0	2.0	owl	'nV_V'	owl_17.jpg	2.0	1.0	Birds	Living_Things	249.05	19.0	glimpse	0
249.9	0.85	0.7202973961830139	0.4903386831283569	0.0	2.0	owl	'nV_V'	owl_17.jpg	2.0	1.0	Birds	Living_Things	249.9	19.0	glimpse	0
250.75	0.85	0.7202973961830139	0.4903386831283569	0.0	2.0	owl	'nV_V'	owl_17.jpg	2.0	1.0	Birds	Living_Things	250.75	19.0	glimpse	0
251.6	0.85	0.7202973961830139	0.4903386831283569	0.0	2.0	owl	'nV_V'	owl_17.jpg	2.0	1.0	Birds	Living_Things	251.6	19.0	glimpse	0
252.45	0.85	0.7202973961830139	0.4903386831283569	0.0	2.0	owl	'nV_V'	owl_17.jpg	2.0	1.0	Birds	Living_Things	252.45	19.0	glimpse	0
253.3	0.85	0.7202973961830139	0.4903386831283569	0.0	2.0	owl	'nV_V'	owl_17.jpg	2.0	1.0	Birds	Living_Things	253.3	19.0	glimpse	1
254.15	0.85	0.7202973961830139	0.4903386831283569	0.0	2.0	owl	'nV_V'	owl_17.jpg	2.0	1.0	Birds	Living_Things	254.15	19.0	glimpse	1
255.0	0.85	0.7202973961830139	0.4903386831283569	0.0	2.0	owl	'nV_V'	owl_17.jpg	2.0	1.0	Birds	Living_Things	255.0	19.0	glimpse	1
255.85	0.85	0.7202973961830139	0.4903386831283569	0.0	2.0	owl	'nV_V'	owl_17.jpg	2.0	1.0	Birds	Living_Things	255.85	19.0	glimpse	1
256.7	0.85	0.7202973961830139	0.4903386831283569	0.0	2.0	owl	'nV_V'	owl_17.jpg	2.0	1.0	Birds	Living_Things	256.7	19.0	glimpse	0
257.55	0.85	0.7202973961830139	0.4903386831283569	0.0	2.0	owl	'nV_V'	owl_17.jpg	2.0	1.0	Birds	Living_Things	257.55	19.0	glimpse	0
258.4	0.85	0.7202973961830139	0.4903386831283569	0.0	2.0	owl	'nV_V'	owl_17.jpg	2.0	1.0	Birds	Living_Things	258.4	19.0	glimpse	0
259.25	0.85	0.7202973961830139	0.4903386831283569	0.0	2.0	owl	'nV_V'	owl_17.jpg	2.0	1.0	Birds	Living_Things	259.25	19.0	glimpse	0
260.1	0.85	0.7202973961830139	0.4903386831283569	0.0	2.0	owl	'nV_V'	owl_17.jpg	2.0	1.0	Birds	Living_Things	260.1	19.0	glimpse	0
260.95	0.85	1.130312442779541	0.9902695417404176	1.0	1.0	boat	'nV_V'	boat_4.jpg	1.0	1.0	Vehicles	Nonliving_Things	260.95	20.0	glimpse	0
261.8	0.85	1.130312442779541	0.9902695417404176	1.0	1.0	boat	'nV_V'	boat_4.jpg	1.0	1.0	Vehicles	Nonliving_Things	261.8	20.0	glimpse	0
262.65	0.85	1.130312442779541	0.9902695417404176	1.0	1.0	boat	'nV_V'	boat_4.jpg	1.0	1.0	Vehicles	Nonliving_Things	262.65	20.0	glimpse	0
263.5	0.85	1.130312442779541	0.9902695417404176	1.0	1.0	boat	'nV_V'	boat_4.jpg	1.0	1.0	Vehicles	Nonliving_Things	263.5	20.0	glimpse	0
264.35	0.85	1.130312442779541	0.9902695417404176	1.0	1.0	boat	'nV_V'	boat_4.jpg	1.0	1.0	Vehicles	Nonliving_Things	264.35	20.0	glimpse	0
265.2	0.85	1.130312442779541	0.9902695417404176	1.0	1.0	boat	'nV_V'	boat_4.jpg	1.0	1.0	Vehicles	Nonliving_Things	265.2	20.0	glimpse	0
266.05	0.85	1.130312442779541	0.9902695417404176	1.0	1.0	boat	'nV_V'	boat_4.jpg	1.0	1.0	Vehicles	Nonliving_Things	266.05	20.0	glimpse	0
266.9	0.85	1.130312442779541	0.9902695417404176	1.0	1.0	boat	'nV_V'	boat_4.jpg	1.0	1.0	Vehicles	Nonliving_Things	266.9	20.0	glimpse	1
267.75	0.85	1.130312442779541	0.9902695417404176	1.0	1.0	boat	'nV_V'	boat_4.jpg	1.0	1.0	Vehicles	Nonliving_Things	267.75	20.0	glimpse	1
268.6	0.85	1.130312442779541	0.9902695417404176	1.0	1.0	boat	'nV_V'	boat_4.jpg	1.0	1.0	Vehicles	Nonliving_Things	268.6	20.0	glimpse	1
269.45	0.85	1.130312442779541	0.9902695417404176	1.0	1.0	boat	'nV_V'	boat_4.jpg	1.0	1.0	Vehicles	Nonliving_Things	269.45	20.0	glimpse	0
270.3	0.85	1.130312442779541	0.9902695417404176	1.0	1.0	boat	'nV_V'	boat_4.jpg	1.0	1.0	Vehicles	Nonliving_Things	270.3	20.0	glimpse	0
271.15	0.85	1.130312442779541	0.9902695417404176	1.0	1.0	boat	'nV_V'	boat_4.jpg	1.0	1.0	Vehicles	Nonliving_Things	271.15	20.0	glimpse	0
272.0	0.85	1.130312442779541	0.9902695417404176	1.0	1.0	boat	'nV_V'	boat_4.jpg	1.0	1.0	Vehicles	Nonliving_Things	272.0	20.0	glimpse	0
272.85	0.85	1.130312442779541	0.9902695417404176	1.0	1.0	boat	'nV_V'	boat_4.jpg	1.0	1.0	Vehicles	Nonliving_Things	272.85	20.0	glimpse	0
273.7	0.85	1.130312442779541	0.9902695417404176	1.0	1.0	boat	'nV_V'	boat_4.jpg	1.0	1.0	Vehicles	Nonliving_Things	273.7	20.0	glimpse	0
274.55	0.85	1.130312442779541	0.9902695417404176	1.0	1.0	boat	'nV_V'	boat_4.jpg	1.0	1.0	Vehicles	Nonliving_Things	274.55	20.0	glimpse	0
275.4	0.85	0.5403186678886414	0.4303189218044281	1.0	1.0	seagull	'V_nV'	seagull_10.jpg	1.0	1.0	Birds	Living_Things	275.4	21.0	unconscious	0
276.25	0.85	0.5403186678886414	0.4303189218044281	1.0	1.0	seagull	'V_nV'	seagull_10.jpg	1.0	1.0	Birds	Living_Things	276.25	21.0	unconscious	0
277.1	0.85	0.5403186678886414	0.4303189218044281	1.0	1.0	seagull	'V_nV'	seagull_10.jpg	1.0	1.0	Birds	Living_Things	277.1	21.0	unconscious	0
277.95	0.85	0.5403186678886414	0.4303189218044281	1.0	1.0	seagull	'V_nV'	seagull_10.jpg	1.0	1.0	Birds	Living_Things	277.95	21.0	unconscious	0
278.8	0.85	0.5403186678886414	0.4303189218044281	1.0	1.0	seagull	'V_nV'	seagull_10.jpg	1.0	1.0	Birds	Living_Things	278.8	21.0	unconscious	0
279.65	0.85	0.5403186678886414	0.4303189218044281	1.0	1.0	seagull	'V_nV'	seagull_10.jpg	1.0	1.0	Birds	Living_Things	279.65	21.0	unconscious	0
280.5	0.85	0.5403186678886414	0.4303189218044281	1.0	1.0	seagull	'V_nV'	seagull_10.jpg	1.0	1.0	Birds	Living_Things	280.5	21.0	unconscious	0
281.35	0.85	0.5403186678886414	0.4303189218044281	1.0	1.0	seagull	'V_nV'	seagull_10.jpg	1.0	1.0	Birds	Living_Things	281.35	21.0	unconscious	1
282.2	0.85	0.5403186678886414	0.4303189218044281	1.0	1.0	seagull	'V_nV'	seagull_10.jpg	1.0	1.0	Birds	Living_Things	282.2	21.0	unconscious	1
283.05	0.85	0.5403186678886414	0.4303189218044281	1.0	1.0	seagull	'V_nV'	seagull_10.jpg	1.0	1.0	Birds	Living_Things	283.05	21.0	unconscious	1
283.9	0.85	0.5403186678886414	0.4303189218044281	1.0	1.0	seagull	'V_nV'	seagull_10.jpg	1.0	1.0	Birds	Living_Things	283.9	21.0	unconscious	0
284.75	0.85	0.5403186678886414	0.4303189218044281	1.0	1.0	seagull	'V_nV'	seagull_10.jpg	1.0	1.0	Birds	Living_Things	284.75	21.0	unconscious	0
285.6	0.85	0.5403186678886414	0.4303189218044281	1.0	1.0	seagull	'V_nV'	seagull_10.jpg	1.0	1.0	Birds	Living_Things	285.6	21.0	unconscious	0
286.45	0.85	0.5403186678886414	0.4303189218044281	1.0	1.0	seagull	'V_nV'	seagull_10.jpg	1.0	1.0	Birds	Living_Things	286.45	21.0	unconscious	0
287.3	0.85	0.5403186678886414	0.4303189218044281	1.0	1.0	seagull	'V_nV'	seagull_10.jpg	1.0	1.0	Birds	Living_Things	287.3	21.0	unconscious	0
288.15	0.85	0.5403186678886414	0.4303189218044281	1.0	1.0	seagull	'V_nV'	seagull_10.jpg	1.0	1.0	Birds	Living_Things	288.15	21.0	unconscious	0
289.0	0.85	0.7303174734115601	0.4603147804737091	1.0	2.0	castle	'V_nV'	castle_2.jpg	3.0	2.0	Buildings	Nonliving_Things	289.0	22.0	conscious	0
289.85	0.85	0.7303174734115601	0.4603147804737091	1.0	2.0	castle	'V_nV'	castle_2.jpg	3.0	2.0	Buildings	Nonliving_Things	289.85	22.0	conscious	0
290.7	0.85	0.7303174734115601	0.4603147804737091	1.0	2.0	castle	'V_nV'	castle_2.jpg	3.0	2.0	Buildings	Nonliving_Things	290.7	22.0	conscious	0
291.55	0.85	0.7303174734115601	0.4603147804737091	1.0	2.0	castle	'V_nV'	castle_2.jpg	3.0	2.0	Buildings	Nonliving_Things	291.55	22.0	conscious	0
292.4	0.85	0.7303174734115601	0.4603147804737091	1.0	2.0	castle	'V_nV'	castle_2.jpg	3.0	2.0	Buildings	Nonliving_Things	292.4	22.0	conscious	0
293.25	0.85	0.7303174734115601	0.4603147804737091	1.0	2.0	castle	'V_nV'	castle_2.jpg	3.0	2.0	Buildings	Nonliving_Things	293.25	22.0	conscious	0
294.1	0.85	0.7303174734115601	0.4603147804737091	1.0	2.0	castle	'V_nV'	castle_2.jpg	3.0	2.0	Buildings	Nonliving_Things	294.1	22.0	conscious	1
294.95	0.85	0.7303174734115601	0.4603147804737091	1.0	2.0	castle	'V_nV'	castle_2.jpg	3.0	2.0	Buildings	Nonliving_Things	294.95	22.0	conscious	1
295.8	0.85	0.7303174734115601	0.4603147804737091	1.0	2.0	castle	'V_nV'	castle_2.jpg	3.0	2.0	Buildings	Nonliving_Things	295.8	22.0	conscious	1
296.65	0.85	0.7303174734115601	0.4603147804737091	1.0	2.0	castle	'V_nV'	castle_2.jpg	3.0	2.0	Buildings	Nonliving_Things	296.65	22.0	conscious	1
297.5	0.85	0.7303174734115601	0.4603147804737091	1.0	2.0	castle	'V_nV'	castle_2.jpg	3.0	2.0	Buildings	Nonliving_Things	297.5	22.0	conscious	0
298.35	0.85	0.7303174734115601	0.4603147804737091	1.0	2.0	castle	'V_nV'	castle_2.jpg	3.0	2.0	Buildings	Nonliving_Things	298.35	22.0	conscious	0
299.2	0.85	0.7303174734115601	0.4603147804737091	1.0	2.0	castle	'V_nV'	castle_2.jpg	3.0	2.0	Buildings	Nonliving_Things	299.2	22.0	conscious	0
300.05	0.85	0.7303174734115601	0.4603147804737091	1.0	2.0	castle	'V_nV'	castle_2.jpg	3.0	2.0	Buildings	Nonliving_Things	300.05	22.0	conscious	0
300.9	0.85	0.7303174734115601	0.4603147804737091	1.0	2.0	castle	'V_nV'	castle_2.jpg	3.0	2.0	Buildings	Nonliving_Things	300.9	22.0	conscious	0
301.75	0.85	0.8603205680847168	0.4203224778175354	0.0	2.0	rhino	'nV_V'	rhino_19.jpg	1.0	1.0	Animals	Living_Things	301.75	23.0	unconscious	0
302.6	0.85	0.8603205680847168	0.4203224778175354	0.0	2.0	rhino	'nV_V'	rhino_19.jpg	1.0	1.0	Animals	Living_Things	302.6	23.0	unconscious	0
303.45	0.85	0.8603205680847168	0.4203224778175354	0.0	2.0	rhino	'nV_V'	rhino_19.jpg	1.0	1.0	Animals	Living_Things	303.45	23.0	unconscious	0
304.3	0.85	0.8603205680847168	0.4203224778175354	0.0	2.0	rhino	'nV_V'	rhino_19.jpg	1.0	1.0	Animals	Living_Things	304.3	23.0	unconscious	0
305.15	0.85	0.8603205680847168	0.4203224778175354	0.0	2.0	rhino	'nV_V'	rhino_19.jpg	1.0	1.0	Animals	Living_Things	305.15	23.0	unconscious	0
306.0	0.85	0.8603205680847168	0.4203224778175354	0.0	2.0	rhino	'nV_V'	rhino_19.jpg	1.0	1.0	Animals	Living_Things	306.0	23.0	unconscious	0
306.85	0.85	0.8603205680847168	0.4203224778175354	0.0	2.0	rhino	'nV_V'	rhino_19.jpg	1.0	1.0	Animals	Living_Things	306.85	23.0	unconscious	1
307.7	0.85	0.8603205680847168	0.4203224778175354	0.0	2.0	rhino	'nV_V'	rhino_19.jpg	1.0	1.0	Animals	Living_Things	307.7	23.0	unconscious	1
308.55	0.85	0.8603205680847168	0.4203224778175354	0.0	2.0	rhino	'nV_V'	rhino_19.jpg	1.0	1.0	Animals	Living_Things	308.55	23.0	unconscious	1
309.4	0.85	0.8603205680847168	0.4203224778175354	0.0	2.0	rhino	'nV_V'	rhino_19.jpg	1.0	1.0	Animals	Living_Things	309.4	23.0	unconscious	0
310.25	0.85	0.8603205680847168	0.4203224778175354	0.0	2.0	rhino	'nV_V'	rhino_19.jpg	1.0	1.0	Animals	Living_Things	310.25	23.0	unconscious	0
311.1	0.85	0.8603205680847168	0.4203224778175354	0.0	2.0	rhino	'nV_V'	rhino_19.jpg	1.0	1.0	Animals	Living_Things	311.1	23.0	unconscious	0
311.95	0.85	0.8603205680847168	0.4203224778175354	0.0	2.0	rhino	'nV_V'	rhino_19.jpg	1.0	1.0	Animals	Living_Things	311.95	23.0	unconscious	0
312.8	0.85	0.8603205680847168	0.4203224778175354	0.0	2.0	rhino	'nV_V'	rhino_19.jpg	1.0	1.0	Animals	Living_Things	312.8	23.0	unconscious	0
313.65	0.85	0.630284309387207	1.0103143453598022	1.0	1.0	cathedral	'nV_V'	cathedral_6.jpg	3.0	1.0	Buildings	Nonliving_Things	313.65	24.0	glimpse	0
314.5	0.85	0.630284309387207	1.0103143453598022	1.0	1.0	cathedral	'nV_V'	cathedral_6.jpg	3.0	1.0	Buildings	Nonliving_Things	314.5	24.0	glimpse	0
315.35	0.85	0.630284309387207	1.0103143453598022	1.0	1.0	cathedral	'nV_V'	cathedral_6.jpg	3.0	1.0	Buildings	Nonliving_Things	315.35	24.0	glimpse	0
316.2	0.85	0.630284309387207	1.0103143453598022	1.0	1.0	cathedral	'nV_V'	cathedral_6.jpg	3.0	1.0	Buildings	Nonliving_Things	316.2	24.0	glimpse	0
317.05	0.85	0.630284309387207	1.0103143453598022	1.0	1.0	cathedral	'nV_V'	cathedral_6.jpg	3.0	1.0	Buildings	Nonliving_Things	317.05	24.0	glimpse	0
317.9	0.85	0.630284309387207	1.0103143453598022	1.0	1.0	cathedral	'nV_V'	cathedral_6.jpg	3.0	1.0	Buildings	Nonliving_Things	317.9	24.0	glimpse	0
318.75	0.85	0.630284309387207	1.0103143453598022	1.0	1.0	cathedral	'nV_V'	cathedral_6.jpg	3.0	1.0	Buildings	Nonliving_Things	318.75	24.0	glimpse	1
319.6	0.85	0.630284309387207	1.0103143453598022	1.0	1.0	cathedral	'nV_V'	cathedral_6.jpg	3.0	1.0	Buildings	Nonliving_Things	319.6	24.0	glimpse	1
320.45	0.85	0.630284309387207	1.0103143453598022	1.0	1.0	cathedral	'nV_V'	cathedral_6.jpg	3.0	1.0	Buildings	Nonliving_Things	320.45	24.0	glimpse	1
321.3	0.85	0.630284309387207	1.0103143453598022	1.0	1.0	cathedral	'nV_V'	cathedral_6.jpg	3.0	1.0	Buildings	Nonliving_Things	321.3	24.0	glimpse	1
322.15	0.85	0.630284309387207	1.0103143453598022	1.0	1.0	cathedral	'nV_V'	cathedral_6.jpg	3.0	1.0	Buildings	Nonliving_Things	322.15	24.0	glimpse	0
323.0	0.85	0.630284309387207	1.0103143453598022	1.0	1.0	cathedral	'nV_V'	cathedral_6.jpg	3.0	1.0	Buildings	Nonliving_Things	323.0	24.0	glimpse	0
323.85	0.85	0.630284309387207	1.0103143453598022	1.0	1.0	cathedral	'nV_V'	cathedral_6.jpg	3.0	1.0	Buildings	Nonliving_Things	323.85	24.0	glimpse	0
324.7	0.85	0.630284309387207	1.0103143453598022	1.0	1.0	cathedral	'nV_V'	cathedral_6.jpg	3.0	1.0	Buildings	Nonliving_Things	324.7	24.0	glimpse	0
325.55	0.85	0.630284309387207	1.0103143453598022	1.0	1.0	cathedral	'nV_V'	cathedral_6.jpg	3.0	1.0	Buildings	Nonliving_Things	325.55	24.0	glimpse	0
326.4	0.85	0.6603047847747803	0.7803147435188293	1.0	2.0	ostrich	'nV_V'	ostrich_1.jpg	2.0	2.0	Birds	Living_Things	326.4	25.0	unconscious	0
327.25	0.85	0.6603047847747803	0.7803147435188293	1.0	2.0	ostrich	'nV_V'	ostrich_1.jpg	2.0	2.0	Birds	Living_Things	327.25	25.0	unconscious	0
328.1	0.85	0.6603047847747803	0.7803147435188293	1.0	2.0	ostrich	'nV_V'	ostrich_1.jpg	2.0	2.0	Birds	Living_Things	328.1	25.0	unconscious	0
328.95	0.85	0.6603047847747803	0.7803147435188293	1.0	2.0	ostrich	'nV_V'	ostrich_1.jpg	2.0	2.0	Birds	Living_Things	328.95	25.0	unconscious	0
329.8	0.85	0.6603047847747803	0.7803147435188293	1.0	2.0	ostrich	'nV_V'	ostrich_1.jpg	2.0	2.0	Birds	Living_Things	329.8	25.0	unconscious	0
330.65	0.85	0.6603047847747803	0.7803147435188293	1.0	2.0	ostrich	'nV_V'	ostrich_1.jpg	2.0	2.0	Birds	Living_Things	330.65	25.0	unconscious	0
331.5	0.85	0.6603047847747803	0.7803147435188293	1.0	2.0	ostrich	'nV_V'	ostrich_1.jpg	2.0	2.0	Birds	Living_Things	331.5	25.0	unconscious	1
332.35	0.85	0.6603047847747803	0.7803147435188293	1.0	2.0	ostrich	'nV_V'	ostrich_1.jpg	2.0	2.0	Birds	Living_Things	332.35	25.0	unconscious	1
333.2	0.85	0.6603047847747803	0.7803147435188293	1.0	2.0	ostrich	'nV_V'	ostrich_1.jpg	2.0	2.0	Birds	Living_Things	333.2	25.0	unconscious	1
334.05	0.85	0.6603047847747803	0.7803147435188293	1.0	2.0	ostrich	'nV_V'	ostrich_1.jpg	2.0	2.0	Birds	Living_Things	334.05	25.0	unconscious	0
334.9	0.85	0.6603047847747803	0.7803147435188293	1.0	2.0	ostrich	'nV_V'	ostrich_1.jpg	2.0	2.0	Birds	Living_Things	334.9	25.0	unconscious	0
335.75	0.85	0.6603047847747803	0.7803147435188293	1.0	2.0	ostrich	'nV_V'	ostrich_1.jpg	2.0	2.0	Birds	Living_Things	335.75	25.0	unconscious	0
336.6	0.85	0.6603047847747803	0.7803147435188293	1.0	2.0	ostrich	'nV_V'	ostrich_1.jpg	2.0	2.0	Birds	Living_Things	336.6	25.0	unconscious	0
337.45	0.85	0.6603047847747803	0.7803147435188293	1.0	2.0	ostrich	'nV_V'	ostrich_1.jpg	2.0	2.0	Birds	Living_Things	337.45	25.0	unconscious	0
338.3	0.85	0.6603047847747803	0.7803147435188293	1.0	2.0	ostrich	'nV_V'	ostrich_1.jpg	2.0	2.0	Birds	Living_Things	338.3	25.0	unconscious	0
339.15	0.85	0.5403266549110413	0.7003549933433533	1.0	1.0	shark	'V_nV'	shark_7.jpg	3.0	1.0	Marine_creatures	Living_Things	339.15	26.0	glimpse	0
340.0	0.85	0.5403266549110413	0.7003549933433533	1.0	1.0	shark	'V_nV'	shark_7.jpg	3.0	1.0	Marine_creatures	Living_Things	340.0	26.0	glimpse	0
340.85	0.85	0.5403266549110413	0.7003549933433533	1.0	1.0	shark	'V_nV'	shark_7.jpg	3.0	1.0	Marine_creatures	Living_Things	340.85	26.0	glimpse	0
341.7	0.85	0.5403266549110413	0.7003549933433533	1.0	1.0	shark	'V_nV'	shark_7.jpg	3.0	1.0	Marine_creatures	Living_Things	341.7	26.0	glimpse	0
342.55	0.85	0.5403266549110413	0.7003549933433533	1.0	1.0	shark	'V_nV'	shark_7.jpg	3.0	1.0	Marine_creatures	Living_Things	342.55	26.0	glimpse	0
343.4	0.85	0.5403266549110413	0.7003549933433533	1.0	1.0	shark	'V_nV'	shark_7.jpg	3.0	1.0	Marine_creatures	Living_Things	343.4	26.0	glimpse	0
344.25	0.85	0.5403266549110413	0.7003549933433533	1.0	1.0	shark	'V_nV'	shark_7.jpg	3.0	1.0	Marine_creatures	Living_Things	344.25	26.0	glimpse	1
345.1	0.85	0.5403266549110413	0.7003549933433533	1.0	1.0	shark	'V_nV'	shark_7.jpg	3.0	1.0	Marine_creatures	Living_Things	345.1	26.0	glimpse	1
345.95	0.85	0.5403266549110413	0.7003549933433533	1.0	1.0	shark	'V_nV'	shark_7.jpg	3.0	1.0	Marine_creatures	Living_Things	345.95	26.0	glimpse	1
346.8	0.85	0.5403266549110413	0.7003549933433533	1.0	1.0	shark	'V_nV'	shark_7.jpg	3.0	1.0	Marine_creatures	Living_Things	346.8	26.0	glimpse	1
347.65	0.85	0.5403266549110413	0.7003549933433533	1.0	1.0	shark	'V_nV'	shark_7.jpg	3.0	1.0	Marine_creatures	Living_Things	347.65	26.0	glimpse	0
348.5	0.85	0.5403266549110413	0.7003549933433533	1.0	1.0	shark	'V_nV'	shark_7.jpg	3.0	1.0	Marine_creatures	Living_Things	348.5	26.0	glimpse	0
349.35	0.85	0.5403266549110413	0.7003549933433533	1.0	1.0	shark	'V_nV'	shark_7.jpg	3.0	1.0	Marine_creatures	Living_Things	349.35	26.0	glimpse	0
350.2	0.85	0.5403266549110413	0.7003549933433533	1.0	1.0	shark	'V_nV'	shark_7.jpg	3.0	1.0	Marine_creatures	Living_Things	350.2	26.0	glimpse	0
351.05	0.85	0.7903043031692505	1.1003532409667969	1.0	2.0	pigeon	'nV_V'	pigeon_12.jpg	2.0	2.0	Birds	Living_Things	351.05	27.0	glimpse	0
351.9	0.85	0.7903043031692505	1.1003532409667969	1.0	2.0	pigeon	'nV_V'	pigeon_12.jpg	2.0	2.0	Birds	Living_Things	351.9	27.0	glimpse	0
352.75	0.85	0.7903043031692505	1.1003532409667969	1.0	2.0	pigeon	'nV_V'	pigeon_12.jpg	2.0	2.0	Birds	Living_Things	352.75	27.0	glimpse	0
353.6	0.85	0.7903043031692505	1.1003532409667969	1.0	2.0	pigeon	'nV_V'	pigeon_12.jpg	2.0	2.0	Birds	Living_Things	353.6	27.0	glimpse	0
354.45	0.85	0.7903043031692505	1.1003532409667969	1.0	2.0	pigeon	'nV_V'	pigeon_12.jpg	2.0	2.0	Birds	Living_Things	354.45	27.0	glimpse	0
355.3	0.85	0.7903043031692505	1.1003532409667969	1.0	2.0	pigeon	'nV_V'	pigeon_12.jpg	2.0	2.0	Birds	Living_Things	355.3	27.0	glimpse	0
356.15	0.85	0.7903043031692505	1.1003532409667969	1.0	2.0	pigeon	'nV_V'	pigeon_12.jpg	2.0	2.0	Birds	Living_Things	356.15	27.0	glimpse	0
357.0	0.85	0.7903043031692505	1.1003532409667969	1.0	2.0	pigeon	'nV_V'	pigeon_12.jpg	2.0	2.0	Birds	Living_Things	357.0	27.0	glimpse	1
357.85	0.85	0.7903043031692505	1.1003532409667969	1.0	2.0	pigeon	'nV_V'	pigeon_12.jpg	2.0	2.0	Birds	Living_Things	357.85	27.0	glimpse	1
358.7	0.85	0.7903043031692505	1.1003532409667969	1.0	2.0	pigeon	'nV_V'	pigeon_12.jpg	2.0	2.0	Birds	Living_Things	358.7	27.0	glimpse	1
359.55	0.85	0.7903043031692505	1.1003532409667969	1.0	2.0	pigeon	'nV_V'	pigeon_12.jpg	2.0	2.0	Birds	Living_Things	359.55	27.0	glimpse	0
360.4	0.85	0.7903043031692505	1.1003532409667969	1.0	2.0	pigeon	'nV_V'	pigeon_12.jpg	2.0	2.0	Birds	Living_Things	360.4	27.0	glimpse	0
361.25	0.85	0.7903043031692505	1.1003532409667969	1.0	2.0	pigeon	'nV_V'	pigeon_12.jpg	2.0	2.0	Birds	Living_Things	361.25	27.0	glimpse	0
362.1	0.85	0.7903043031692505	1.1003532409667969	1.0	2.0	pigeon	'nV_V'	pigeon_12.jpg	2.0	2.0	Birds	Living_Things	362.1	27.0	glimpse	0
362.95	0.85	0.7903043031692505	1.1003532409667969	1.0	2.0	pigeon	'nV_V'	pigeon_12.jpg	2.0	2.0	Birds	Living_Things	362.95	27.0	glimpse	0
363.8	0.85	0.7903043031692505	1.1003532409667969	1.0	2.0	pigeon	'nV_V'	pigeon_12.jpg	2.0	2.0	Birds	Living_Things	363.8	27.0	glimpse	0
364.65	0.85	1.050350308418274	0.620320200920105	1.0	2.0	coking-pot	'V_nV'	coking-pot_24.jpg	1.0	2.0	Kitchen_Uten	Nonliving_Things	364.65	28.0	unconscious	0
365.5	0.85	1.050350308418274	0.620320200920105	1.0	2.0	coking-pot	'V_nV'	coking-pot_24.jpg	1.0	2.0	Kitchen_Uten	Nonliving_Things	365.5	28.0	unconscious	0
366.35	0.85	1.050350308418274	0.620320200920105	1.0	2.0	coking-pot	'V_nV'	coking-pot_24.jpg	1.0	2.0	Kitchen_Uten	Nonliving_Things	366.35	28.0	unconscious	0
367.2	0.85	1.050350308418274	0.620320200920105	1.0	2.0	coking-pot	'V_nV'	coking-pot_24.jpg	1.0	2.0	Kitchen_Uten	Nonliving_Things	367.2	28.0	unconscious	0
368.05	0.85	1.050350308418274	0.620320200920105	1.0	2.0	coking-pot	'V_nV'	coking-pot_24.jpg	1.0	2.0	Kitchen_Uten	Nonliving_Things	368.05	28.0	unconscious	0
368.9	0.85	1.050350308418274	0.620320200920105	1.0	2.0	coking-pot	'V_nV'	coking-pot_24.jpg	1.0	2.0	Kitchen_Uten	Nonliving_Things	368.9	28.0	unconscious	0
369.75	0.85	1.050350308418274	0.620320200920105	1.0	2.0	coking-pot	'V_nV'	coking-pot_24.jpg	1.0	2.0	Kitchen_Uten	Nonliving_Things	369.75	28.0	unconscious	1
370.6	0.85	1.050350308418274	0.620320200920105	1.0	2.0	coking-pot	'V_nV'	coking-pot_24.jpg	1.0	2.0	Kitchen_Uten	Nonliving_Things	370.6	28.0	unconscious	1
371.45	0.85	1.050350308418274	0.620320200920105	1.0	2.0	coking-pot	'V_nV'	coking-pot_24.jpg	1.0	2.0	Kitchen_Uten	Nonliving_Things	371.45	28.0	unconscious	1
372.3	0.85	1.050350308418274	0.620320200920105	1.0	2.0	coking-pot	'V_nV'	coking-pot_24.jpg	1.0	2.0	Kitchen_Uten	Nonliving_Things	372.3	28.0	unconscious	1
373.15	0.85	1.050350308418274	0.620320200920105	1.0	2.0	coking-pot	'V_nV'	coking-pot_24.jpg	1.0	2.0	Kitchen_Uten	Nonliving_Things	373.15	28.0	unconscious	0
374.0	0.85	1.050350308418274	0.620320200920105	1.0	2.0	coking-pot	'V_nV'	coking-pot_24.jpg	1.0	2.0	Kitchen_Uten	Nonliving_Things	374.0	28.0	unconscious	0
374.85	0.85	1.050350308418274	0.620320200920105	1.0	2.0	coking-pot	'V_nV'	coking-pot_24.jpg	1.0	2.0	Kitchen_Uten	Nonliving_Things	374.85	28.0	unconscious	0
375.7	0.85	1.050350308418274	0.620320200920105	1.0	2.0	coking-pot	'V_nV'	coking-pot_24.jpg	1.0	2.0	Kitchen_Uten	Nonliving_Things	375.7	28.0	unconscious	0
376.55	0.85	1.050350308418274	0.620320200920105	1.0	2.0	coking-pot	'V_nV'	coking-pot_24.jpg	1.0	2.0	Kitchen_Uten	Nonliving_Things	376.55	28.0	unconscious	0
377.4	0.85	0.7602918744087219	1.1302629709243774	1.0	2.0	plane	'V_nV'	plane_22.jpg	3.0	2.0	Vehicles	Nonliving_Things	377.4	29.0	glimpse	0
378.25	0.85	0.7602918744087219	1.1302629709243774	1.0	2.0	plane	'V_nV'	plane_22.jpg	3.0	2.0	Vehicles	Nonliving_Things	378.25	29.0	glimpse	0
379.1	0.85	0.7602918744087219	1.1302629709243774	1.0	2.0	plane	'V_nV'	plane_22.jpg	3.0	2.0	Vehicles	Nonliving_Things	379.1	29.0	glimpse	0
379.95	0.85	0.7602918744087219	1.1302629709243774	1.0	2.0	plane	'V_nV'	plane_22.jpg	3.0	2.0	Vehicles	Nonliving_Things	379.95	29.0	glimpse	0
380.8	0.85	0.7602918744087219	1.1302629709243774	1.0	2.0	plane	'V_nV'	plane_22.jpg	3.0	2.0	Vehicles	Nonliving_Things	380.8	29.0	glimpse	0
381.65	0.85	0.7602918744087219	1.1302629709243774	1.0	2.0	plane	'V_nV'	plane_22.jpg	3.0	2.0	Vehicles	Nonliving_Things	381.65	29.0	glimpse	0
382.5	0.85	0.7602918744087219	1.1302629709243774	1.0	2.0	plane	'V_nV'	plane_22.jpg	3.0	2.0	Vehicles	Nonliving_Things	382.5	29.0	glimpse	1
383.35	0.85	0.7602918744087219	1.1302629709243774	1.0	2.0	plane	'V_nV'	plane_22.jpg	3.0	2.0	Vehicles	Nonliving_Things	383.35	29.0	glimpse	1
384.2	0.85	0.7602918744087219	1.1302629709243774	1.0	2.0	plane	'V_nV'	plane_22.jpg	3.0	2.0	Vehicles	Nonliving_Things	384.2	29.0	glimpse	1
385.05	0.85	0.7602918744087219	1.1302629709243774	1.0	2.0	plane	'V_nV'	plane_22.jpg	3.0	2.0	Vehicles	Nonliving_Things	385.05	29.0	glimpse	1
385.9	0.85	0.7602918744087219	1.1302629709243774	1.0	2.0	plane	'V_nV'	plane_22.jpg	3.0	2.0	Vehicles	Nonliving_Things	385.9	29.0	glimpse	0
386.75	0.85	0.7602918744087219	1.1302629709243774	1.0	2.0	plane	'V_nV'	plane_22.jpg	3.0	2.0	Vehicles	Nonliving_Things	386.75	29.0	glimpse	0
387.6	0.85	0.7602918744087219	1.1302629709243774	1.0	2.0	plane	'V_nV'	plane_22.jpg	3.0	2.0	Vehicles	Nonliving_Things	387.6	29.0	glimpse	0
388.45	0.85	0.7602918744087219	1.1302629709243774	1.0	2.0	plane	'V_nV'	plane_22.jpg	3.0	2.0	Vehicles	Nonliving_Things	388.45	29.0	glimpse	0
389.3	0.85	0.7602918744087219	1.1302629709243774	1.0	2.0	plane	'V_nV'	plane_22.jpg	3.0	2.0	Vehicles	Nonliving_Things	389.3	29.0	glimpse	0
390.15	0.85	0.5703544020652771	0.2803522348403931	1.0	2.0	bookcase	'V_nV'	bookcase_12.jpg	2.0	2.0	Furniture	Nonliving_Things	390.15	30.0	conscious	0
391.0	0.85	0.5703544020652771	0.2803522348403931	1.0	2.0	bookcase	'V_nV'	bookcase_12.jpg	2.0	2.0	Furniture	Nonliving_Things	391.0	30.0	conscious	0
391.85	0.85	0.5703544020652771	0.2803522348403931	1.0	2.0	bookcase	'V_nV'	bookcase_12.jpg	2.0	2.0	Furniture	Nonliving_Things	391.85	30.0	conscious	0
392.7	0.85	0.5703544020652771	0.2803522348403931	1.0	2.0	bookcase	'V_nV'	bookcase_12.jpg	2.0	2.0	Furniture	Nonliving_Things	392.7	30.0	conscious	0
393.55	0.85	0.5703544020652771	0.2803522348403931	1.0	2.0	bookcase	'V_nV'	bookcase_12.jpg	2.0	2.0	Furniture	Nonliving_Things	393.55	30.0	conscious	0
394.4	0.85	0.5703544020652771	0.2803522348403931	1.0	2.0	bookcase	'V_nV'	bookcase_12.jpg	2.0	2.0	Furniture	Nonliving_Things	394.4	30.0	conscious	0
395.25	0.85	0.5703544020652771	0.2803522348403931	1.0	2.0	bookcase	'V_nV'	bookcase_12.jpg	2.0	2.0	Furniture	Nonliving_Things	395.25	30.0	conscious	1
396.1	0.85	0.5703544020652771	0.2803522348403931	1.0	2.0	bookcase	'V_nV'	bookcase_12.jpg	2.0	2.0	Furniture	Nonliving_Things	396.1	30.0	conscious	1
396.95	0.85	0.5703544020652771	0.2803522348403931	1.0	2.0	bookcase	'V_nV'	bookcase_12.jpg	2.0	2.0	Furniture	Nonliving_Things	396.95	30.0	conscious	1
397.8	0.85	0.5703544020652771	0.2803522348403931	1.0	2.0	bookcase	'V_nV'	bookcase_12.jpg	2.0	2.0	Furniture	Nonliving_Things	397.8	30.0	conscious	1
398.65	0.85	0.5703544020652771	0.2803522348403931	1.0	2.0	bookcase	'V_nV'	bookcase_12.jpg	2.0	2.0	Furniture	Nonliving_Things	398.65	30.0	conscious	0
399.5	0.85	0.5703544020652771	0.2803522348403931	1.0	2.0	bookcase	'V_nV'	bookcase_12.jpg	2.0	2.0	Furniture	Nonliving_Things	399.5	30.0	conscious	0
400.35	0.85	0.5703544020652771	0.2803522348403931	1.0	2.0	bookcase	'V_nV'	bookcase_12.jpg	2.0	2.0	Furniture	Nonliving_Things	400.35	30.0	conscious	0
401.2	0.85	0.5703544020652771	0.2803522348403931	1.0	2.0	bookcase	'V_nV'	bookcase_12.jpg	2.0	2.0	Furniture	Nonliving_Things	401.2	30.0	conscious	0
402.05	0.85	0.5703544020652771	0.2803522348403931	1.0	2.0	bookcase	'V_nV'	bookcase_12.jpg	2.0	2.0	Furniture	Nonliving_Things	402.05	30.0	conscious	0
402.9	0.85	0.9203317761421204	0.5503462553024292	0.0	2.0	raven	'nV_V'	raven_19.jpg	1.0	1.0	Birds	Living_Things	402.9	31.0	unconscious	0
403.75	0.85	0.9203317761421204	0.5503462553024292	0.0	2.0	raven	'nV_V'	raven_19.jpg	1.0	1.0	Birds	Living_Things	403.75	31.0	unconscious	0
404.6	0.85	0.9203317761421204	0.5503462553024292	0.0	2.0	raven	'nV_V'	raven_19.jpg	1.0	1.0	Birds	Living_Things	404.6	31.0	unconscious	0
405.45	0.85	0.9203317761421204	0.5503462553024292	0.0	2.0	raven	'nV_V'	raven_19.jpg	1.0	1.0	Birds	Living_Things	405.45	31.0	unconscious	0
406.3	0.85	0.9203317761421204	0.5503462553024292	0.0	2.0	raven	'nV_V'	raven_19.jpg	1.0	1.0	Birds	Living_Things	406.3	31.0	unconscious	0
407.15	0.85	0.9203317761421204	0.5503462553024292	0.0	2.0	raven	'nV_V'	raven_19.jpg	1.0	1.0	Birds	Living_Things	407.15	31.0	unconscious	0
408.0	0.85	0.9203317761421204	0.5503462553024292	0.0	2.0	raven	'nV_V'	raven_19.jpg	1.0	1.0	Birds	Living_Things	408.0	31.0	unconscious	1
408.85	0.85	0.9203317761421204	0.5503462553024292	0.0	2.0	raven	'nV_V'	raven_19.jpg	1.0	1.0	Birds	Living_Things	408.85	31.0	unconscious	1
409.7	0.85	0.9203317761421204	0.5503462553024292	0.0	2.0	raven	'nV_V'	raven_19.jpg	1.0	1.0	Birds	Living_Things	409.7	31.0	unconscious	1
410.55	0.85	0.9203317761421204	0.5503462553024292	0.0	2.0	raven	'nV_V'	raven_19.jpg	1.0	1.0	Birds	Living_Things	410.55	31.0	unconscious	1
411.4	0.85	0.9203317761421204	0.5503462553024292	0.0	2.0	raven	'nV_V'	raven_19.jpg	1.0	1.0	Birds	Living_Things	411.4	31.0	unconscious	0
412.25	0.85	0.9203317761421204	0.5503462553024292	0.0	2.0	raven	'nV_V'	raven_19.jpg	1.0	1.0	Birds	Living_Things	412.25	31.0	unconscious	0
413.1	0.85	0.9203317761421204	0.5503462553024292	0.0	2.0	raven	'nV_V'	raven_19.jpg	1.0	1.0	Birds	Living_Things	413.1	31.0	unconscious	0
413.95	0.85	0.9203317761421204	0.5503462553024292	0.0	2.0	raven	'nV_V'	raven_19.jpg	1.0	1.0	Birds	Living_Things	413.95	31.0	unconscious	0
414.8	0.85	1.2403128147125244	0.3903358876705169	1.0	1.0	Chest-of-drawers	'nV_V'	Chest-of-drawers_18.	2.0	1.0	Furniture	Nonliving_Things	414.8	32.0	conscious	0
415.65	0.85	1.2403128147125244	0.3903358876705169	1.0	1.0	Chest-of-drawers	'nV_V'	Chest-of-drawers_18.	2.0	1.0	Furniture	Nonliving_Things	415.65	32.0	conscious	0
416.5	0.85	1.2403128147125244	0.3903358876705169	1.0	1.0	Chest-of-drawers	'nV_V'	Chest-of-drawers_18.	2.0	1.0	Furniture	Nonliving_Things	416.5	32.0	conscious	0
417.35	0.85	1.2403128147125244	0.3903358876705169	1.0	1.0	Chest-of-drawers	'nV_V'	Chest-of-drawers_18.	2.0	1.0	Furniture	Nonliving_Things	417.35	32.0	conscious	0
418.2	0.85	1.2403128147125244	0.3903358876705169	1.0	1.0	Chest-of-drawers	'nV_V'	Chest-of-drawers_18.	2.0	1.0	Furniture	Nonliving_Things	418.2	32.0	conscious	0
419.05	0.85	1.2403128147125244	0.3903358876705169	1.0	1.0	Chest-of-drawers	'nV_V'	Chest-of-drawers_18.	2.0	1.0	Furniture	Nonliving_Things	419.05	32.0	conscious	0
419.9	0.85	1.2403128147125244	0.3903358876705169	1.0	1.0	Chest-of-drawers	'nV_V'	Chest-of-drawers_18.	2.0	1.0	Furniture	Nonliving_Things	419.9	32.0	conscious	0
420.75	0.85	1.2403128147125244	0.3903358876705169	1.0	1.0	Chest-of-drawers	'nV_V'	Chest-of-drawers_18.	2.0	1.0	Furniture	Nonliving_Things	420.75	32.0	conscious	1
421.6	0.85	1.2403128147125244	0.3903358876705169	1.0	1.0	Chest-of-drawers	'nV_V'	Chest-of-drawers_18.	2.0	1.0	Furniture	Nonliving_Things	421.6	32.0	conscious	1
422.45	0.85	1.2403128147125244	0.3903358876705169	1.0	1.0	Chest-of-drawers	'nV_V'	Chest-of-drawers_18.	2.0	1.0	Furniture	Nonliving_Things	422.45	32.0	conscious	1
423.3	0.85	1.2403128147125244	0.3903358876705169	1.0	1.0	Chest-of-drawers	'nV_V'	Chest-of-drawers_18.	2.0	1.0	Furniture	Nonliving_Things	423.3	32.0	conscious	0
424.15	0.85	1.2403128147125244	0.3903358876705169	1.0	1.0	Chest-of-drawers	'nV_V'	Chest-of-drawers_18.	2.0	1.0	Furniture	Nonliving_Things	424.15	32.0	conscious	0
425.0	0.85	1.2403128147125244	0.3903358876705169	1.0	1.0	Chest-of-drawers	'nV_V'	Chest-of-drawers_18.	2.0	1.0	Furniture	Nonliving_Things	425.0	32.0	conscious	0
425.85	0.85	1.2403128147125244	0.3903358876705169	1.0	1.0	Chest-of-drawers	'nV_V'	Chest-of-drawers_18.	2.0	1.0	Furniture	Nonliving_Things	425.85	32.0	conscious	0
426.7	0.85	1.2403128147125244	0.3903358876705169	1.0	1.0	Chest-of-drawers	'nV_V'	Chest-of-drawers_18.	2.0	1.0	Furniture	Nonliving_Things	426.7	32.0	conscious	0
427.55	0.85	1.2403128147125244	0.3903358876705169	1.0	1.0	Chest-of-drawers	'nV_V'	Chest-of-drawers_18.	2.0	1.0	Furniture	Nonliving_Things	427.55	32.0	conscious	0
428.4	0.85	1.2403128147125244	0.3903358876705169	1.0	1.0	Chest-of-drawers	'nV_V'	Chest-of-drawers_18.	2.0	1.0	Furniture	Nonliving_Things	428.4	32.0	conscious	0
429.25	0.85	1.2403128147125244	0.3903358876705169	1.0	1.0	Chest-of-drawers	'nV_V'	Chest-of-drawers_18.	2.0	1.0	Furniture	Nonliving_Things	429.25	32.0	conscious	0
430.1	0.85	1.2403128147125244	0.3903358876705169	1.0	1.0	Chest-of-drawers	'nV_V'	Chest-of-drawers_18.	2.0	1.0	Furniture	Nonliving_Things	430.1	32.0	conscious	0
430.95	0.85	1.2403128147125244	0.3903358876705169	1.0	1.0	Chest-of-drawers	'nV_V'	Chest-of-drawers_18.	2.0	1.0	Furniture	Nonliving_Things	430.95	32.0	conscious	0
