onset	duration	RT_response	RT_visibility	correct	correctAns	labels	options	paths	probe_frame	response	subcategory	targets	time_coor	trials	visibility	volume_interest
0.0	0.85	0.0	0.0	0.0	0.0	n/a	n/a	n/a	0.0	0.0	n/a	n/a	0.0	0.0	n/a	0
0.85	0.85	0.0	0.0	0.0	0.0	n/a	n/a	n/a	0.0	0.0	n/a	n/a	0.85	0.0	n/a	0
1.7	0.85	0.3003386557102203	1.160331130027771	1.0	1.0	tapir	'V_nV'	tapir_21.jpg	3.0	1.0	Animals	Living_Things	1.7	1.0	unconscious	0
2.55	0.85	0.3003386557102203	1.160331130027771	1.0	1.0	tapir	'V_nV'	tapir_21.jpg	3.0	1.0	Animals	Living_Things	2.55	1.0	unconscious	0
3.4	0.85	0.3003386557102203	1.160331130027771	1.0	1.0	tapir	'V_nV'	tapir_21.jpg	3.0	1.0	Animals	Living_Things	3.4	1.0	unconscious	0
4.25	0.85	0.3003386557102203	1.160331130027771	1.0	1.0	tapir	'V_nV'	tapir_21.jpg	3.0	1.0	Animals	Living_Things	4.25	1.0	unconscious	0
5.1	0.85	0.3003386557102203	1.160331130027771	1.0	1.0	tapir	'V_nV'	tapir_21.jpg	3.0	1.0	Animals	Living_Things	5.1	1.0	unconscious	0
5.95	0.85	0.3003386557102203	1.160331130027771	1.0	1.0	tapir	'V_nV'	tapir_21.jpg	3.0	1.0	Animals	Living_Things	5.95	1.0	unconscious	0
6.8	0.85	0.3003386557102203	1.160331130027771	1.0	1.0	tapir	'V_nV'	tapir_21.jpg	3.0	1.0	Animals	Living_Things	6.8	1.0	unconscious	0
7.649999999999999	0.85	0.3003386557102203	1.160331130027771	1.0	1.0	tapir	'V_nV'	tapir_21.jpg	3.0	1.0	Animals	Living_Things	7.649999999999999	1.0	unconscious	1
8.5	0.85	0.3003386557102203	1.160331130027771	1.0	1.0	tapir	'V_nV'	tapir_21.jpg	3.0	1.0	Animals	Living_Things	8.5	1.0	unconscious	1
9.35	0.85	0.3003386557102203	1.160331130027771	1.0	1.0	tapir	'V_nV'	tapir_21.jpg	3.0	1.0	Animals	Living_Things	9.35	1.0	unconscious	1
10.2	0.85	0.3003386557102203	1.160331130027771	1.0	1.0	tapir	'V_nV'	tapir_21.jpg	3.0	1.0	Animals	Living_Things	10.2	1.0	unconscious	0
11.05	0.85	0.3003386557102203	1.160331130027771	1.0	1.0	tapir	'V_nV'	tapir_21.jpg	3.0	1.0	Animals	Living_Things	11.05	1.0	unconscious	0
11.9	0.85	0.3003386557102203	1.160331130027771	1.0	1.0	tapir	'V_nV'	tapir_21.jpg	3.0	1.0	Animals	Living_Things	11.9	1.0	unconscious	0
12.75	0.85	0.3003386557102203	1.160331130027771	1.0	1.0	tapir	'V_nV'	tapir_21.jpg	3.0	1.0	Animals	Living_Things	12.75	1.0	unconscious	0
13.6	0.85	0.3003386557102203	1.160331130027771	1.0	1.0	tapir	'V_nV'	tapir_21.jpg	3.0	1.0	Animals	Living_Things	13.6	1.0	unconscious	0
14.45	0.85	0.99030601978302	0.3303194344043732	1.0	2.0	crab	'nV_V'	crab_19.jpg	6.0	2.0	Marine_creatures	Living_Things	14.45	2.0	conscious	0
15.3	0.85	0.99030601978302	0.3303194344043732	1.0	2.0	crab	'nV_V'	crab_19.jpg	6.0	2.0	Marine_creatures	Living_Things	15.3	2.0	conscious	0
16.15	0.85	0.99030601978302	0.3303194344043732	1.0	2.0	crab	'nV_V'	crab_19.jpg	6.0	2.0	Marine_creatures	Living_Things	16.15	2.0	conscious	0
17.0	0.85	0.99030601978302	0.3303194344043732	1.0	2.0	crab	'nV_V'	crab_19.jpg	6.0	2.0	Marine_creatures	Living_Things	17.0	2.0	conscious	0
17.849999999999998	0.85	0.99030601978302	0.3303194344043732	1.0	2.0	crab	'nV_V'	crab_19.jpg	6.0	2.0	Marine_creatures	Living_Things	17.849999999999998	2.0	conscious	0
18.7	0.85	0.99030601978302	0.3303194344043732	1.0	2.0	crab	'nV_V'	crab_19.jpg	6.0	2.0	Marine_creatures	Living_Things	18.7	2.0	conscious	0
19.55	0.85	0.99030601978302	0.3303194344043732	1.0	2.0	crab	'nV_V'	crab_19.jpg	6.0	2.0	Marine_creatures	Living_Things	19.55	2.0	conscious	0
20.4	0.85	0.99030601978302	0.3303194344043732	1.0	2.0	crab	'nV_V'	crab_19.jpg	6.0	2.0	Marine_creatures	Living_Things	20.4	2.0	conscious	1
21.25	0.85	0.99030601978302	0.3303194344043732	1.0	2.0	crab	'nV_V'	crab_19.jpg	6.0	2.0	Marine_creatures	Living_Things	21.25	2.0	conscious	1
22.1	0.85	0.99030601978302	0.3303194344043732	1.0	2.0	crab	'nV_V'	crab_19.jpg	6.0	2.0	Marine_creatures	Living_Things	22.1	2.0	conscious	1
22.95	0.85	0.99030601978302	0.3303194344043732	1.0	2.0	crab	'nV_V'	crab_19.jpg	6.0	2.0	Marine_creatures	Living_Things	22.95	2.0	conscious	0
23.8	0.85	0.99030601978302	0.3303194344043732	1.0	2.0	crab	'nV_V'	crab_19.jpg	6.0	2.0	Marine_creatures	Living_Things	23.8	2.0	conscious	0
24.65	0.85	0.99030601978302	0.3303194344043732	1.0	2.0	crab	'nV_V'	crab_19.jpg	6.0	2.0	Marine_creatures	Living_Things	24.65	2.0	conscious	0
25.5	0.85	0.99030601978302	0.3303194344043732	1.0	2.0	crab	'nV_V'	crab_19.jpg	6.0	2.0	Marine_creatures	Living_Things	25.5	2.0	conscious	0
26.35	0.85	0.99030601978302	0.3303194344043732	1.0	2.0	crab	'nV_V'	crab_19.jpg	6.0	2.0	Marine_creatures	Living_Things	26.35	2.0	conscious	0
27.2	0.85	0.4703274667263031	0.2803170680999756	1.0	1.0	guitar	'nV_V'	guitar_4.jpg	4.0	1.0	Musical_Inst	Nonliving_Things	27.2	3.0	conscious	0
28.05	0.85	0.4703274667263031	0.2803170680999756	1.0	1.0	guitar	'nV_V'	guitar_4.jpg	4.0	1.0	Musical_Inst	Nonliving_Things	28.05	3.0	conscious	0
28.9	0.85	0.4703274667263031	0.2803170680999756	1.0	1.0	guitar	'nV_V'	guitar_4.jpg	4.0	1.0	Musical_Inst	Nonliving_Things	28.9	3.0	conscious	0
29.75	0.85	0.4703274667263031	0.2803170680999756	1.0	1.0	guitar	'nV_V'	guitar_4.jpg	4.0	1.0	Musical_Inst	Nonliving_Things	29.75	3.0	conscious	0
30.6	0.85	0.4703274667263031	0.2803170680999756	1.0	1.0	guitar	'nV_V'	guitar_4.jpg	4.0	1.0	Musical_Inst	Nonliving_Things	30.6	3.0	conscious	0
31.45	0.85	0.4703274667263031	0.2803170680999756	1.0	1.0	guitar	'nV_V'	guitar_4.jpg	4.0	1.0	Musical_Inst	Nonliving_Things	31.45	3.0	conscious	0
32.3	0.85	0.4703274667263031	0.2803170680999756	1.0	1.0	guitar	'nV_V'	guitar_4.jpg	4.0	1.0	Musical_Inst	Nonliving_Things	32.3	3.0	conscious	0
33.15	0.85	0.4703274667263031	0.2803170680999756	1.0	1.0	guitar	'nV_V'	guitar_4.jpg	4.0	1.0	Musical_Inst	Nonliving_Things	33.15	3.0	conscious	1
34.0	0.85	0.4703274667263031	0.2803170680999756	1.0	1.0	guitar	'nV_V'	guitar_4.jpg	4.0	1.0	Musical_Inst	Nonliving_Things	34.0	3.0	conscious	1
34.85	0.85	0.4703274667263031	0.2803170680999756	1.0	1.0	guitar	'nV_V'	guitar_4.jpg	4.0	1.0	Musical_Inst	Nonliving_Things	34.85	3.0	conscious	1
35.7	0.85	0.4703274667263031	0.2803170680999756	1.0	1.0	guitar	'nV_V'	guitar_4.jpg	4.0	1.0	Musical_Inst	Nonliving_Things	35.7	3.0	conscious	0
36.55	0.85	0.4703274667263031	0.2803170680999756	1.0	1.0	guitar	'nV_V'	guitar_4.jpg	4.0	1.0	Musical_Inst	Nonliving_Things	36.55	3.0	conscious	0
37.4	0.85	0.4703274667263031	0.2803170680999756	1.0	1.0	guitar	'nV_V'	guitar_4.jpg	4.0	1.0	Musical_Inst	Nonliving_Things	37.4	3.0	conscious	0
38.25	0.85	0.4703274667263031	0.2803170680999756	1.0	1.0	guitar	'nV_V'	guitar_4.jpg	4.0	1.0	Musical_Inst	Nonliving_Things	38.25	3.0	conscious	0
39.1	0.85	0.4703274667263031	0.2803170680999756	1.0	1.0	guitar	'nV_V'	guitar_4.jpg	4.0	1.0	Musical_Inst	Nonliving_Things	39.1	3.0	conscious	0
39.95	0.85	0.4703274667263031	0.2803170680999756	1.0	1.0	guitar	'nV_V'	guitar_4.jpg	4.0	1.0	Musical_Inst	Nonliving_Things	39.95	3.0	conscious	0
40.8	0.85	1.2402772903442385	n/a	1.0	1.0	dolphin	'V_nV'	dolphin_8.jpg	1.0	1.0	Marine_creatures	Living_Things	40.8	4.0	missing data	0
41.65	0.85	1.2402772903442385	n/a	1.0	1.0	dolphin	'V_nV'	dolphin_8.jpg	1.0	1.0	Marine_creatures	Living_Things	41.65	4.0	missing data	0
42.5	0.85	1.2402772903442385	n/a	1.0	1.0	dolphin	'V_nV'	dolphin_8.jpg	1.0	1.0	Marine_creatures	Living_Things	42.5	4.0	missing data	0
43.35	0.85	1.2402772903442385	n/a	1.0	1.0	dolphin	'V_nV'	dolphin_8.jpg	1.0	1.0	Marine_creatures	Living_Things	43.35	4.0	missing data	0
44.2	0.85	1.2402772903442385	n/a	1.0	1.0	dolphin	'V_nV'	dolphin_8.jpg	1.0	1.0	Marine_creatures	Living_Things	44.2	4.0	missing data	0
45.05	0.85	1.2402772903442385	n/a	1.0	1.0	dolphin	'V_nV'	dolphin_8.jpg	1.0	1.0	Marine_creatures	Living_Things	45.05	4.0	missing data	0
45.9	0.85	1.2402772903442385	n/a	1.0	1.0	dolphin	'V_nV'	dolphin_8.jpg	1.0	1.0	Marine_creatures	Living_Things	45.9	4.0	missing data	1
46.75	0.85	1.2402772903442385	n/a	1.0	1.0	dolphin	'V_nV'	dolphin_8.jpg	1.0	1.0	Marine_creatures	Living_Things	46.75	4.0	missing data	1
47.6	0.85	1.2402772903442385	n/a	1.0	1.0	dolphin	'V_nV'	dolphin_8.jpg	1.0	1.0	Marine_creatures	Living_Things	47.6	4.0	missing data	1
48.45	0.85	1.2402772903442385	n/a	1.0	1.0	dolphin	'V_nV'	dolphin_8.jpg	1.0	1.0	Marine_creatures	Living_Things	48.45	4.0	missing data	0
49.3	0.85	1.2402772903442385	n/a	1.0	1.0	dolphin	'V_nV'	dolphin_8.jpg	1.0	1.0	Marine_creatures	Living_Things	49.3	4.0	missing data	0
50.15	0.85	1.2402772903442385	n/a	1.0	1.0	dolphin	'V_nV'	dolphin_8.jpg	1.0	1.0	Marine_creatures	Living_Things	50.15	4.0	missing data	0
51.0	0.85	1.2402772903442385	n/a	1.0	1.0	dolphin	'V_nV'	dolphin_8.jpg	1.0	1.0	Marine_creatures	Living_Things	51.0	4.0	missing data	0
51.85	0.85	1.2402772903442385	n/a	1.0	1.0	dolphin	'V_nV'	dolphin_8.jpg	1.0	1.0	Marine_creatures	Living_Things	51.85	4.0	missing data	0
52.7	0.85	1.2402772903442385	n/a	1.0	1.0	dolphin	'V_nV'	dolphin_8.jpg	1.0	1.0	Marine_creatures	Living_Things	52.7	4.0	missing data	0
53.55	0.85	1.2402772903442385	n/a	1.0	1.0	dolphin	'V_nV'	dolphin_8.jpg	1.0	1.0	Marine_creatures	Living_Things	53.55	4.0	missing data	0
54.4	0.85	1.2602940797805786	n/a	1.0	1.0	palace	'nV_V'	palace_3.jpg	1.0	1.0	Buildings	Nonliving_Things	54.4	5.0	missing data	0
55.25	0.85	1.2602940797805786	n/a	1.0	1.0	palace	'nV_V'	palace_3.jpg	1.0	1.0	Buildings	Nonliving_Things	55.25	5.0	missing data	0
56.1	0.85	1.2602940797805786	n/a	1.0	1.0	palace	'nV_V'	palace_3.jpg	1.0	1.0	Buildings	Nonliving_Things	56.1	5.0	missing data	0
56.95	0.85	1.2602940797805786	n/a	1.0	1.0	palace	'nV_V'	palace_3.jpg	1.0	1.0	Buildings	Nonliving_Things	56.95	5.0	missing data	0
57.8	0.85	1.2602940797805786	n/a	1.0	1.0	palace	'nV_V'	palace_3.jpg	1.0	1.0	Buildings	Nonliving_Things	57.8	5.0	missing data	0
58.65	0.85	1.2602940797805786	n/a	1.0	1.0	palace	'nV_V'	palace_3.jpg	1.0	1.0	Buildings	Nonliving_Things	58.65	5.0	missing data	0
59.5	0.85	1.2602940797805786	n/a	1.0	1.0	palace	'nV_V'	palace_3.jpg	1.0	1.0	Buildings	Nonliving_Things	59.5	5.0	missing data	0
60.35	0.85	1.2602940797805786	n/a	1.0	1.0	palace	'nV_V'	palace_3.jpg	1.0	1.0	Buildings	Nonliving_Things	60.35	5.0	missing data	1
61.2	0.85	1.2602940797805786	n/a	1.0	1.0	palace	'nV_V'	palace_3.jpg	1.0	1.0	Buildings	Nonliving_Things	61.2	5.0	missing data	1
62.05	0.85	1.2602940797805786	n/a	1.0	1.0	palace	'nV_V'	palace_3.jpg	1.0	1.0	Buildings	Nonliving_Things	62.05	5.0	missing data	1
62.9	0.85	1.2602940797805786	n/a	1.0	1.0	palace	'nV_V'	palace_3.jpg	1.0	1.0	Buildings	Nonliving_Things	62.9	5.0	missing data	0
63.75	0.85	1.2602940797805786	n/a	1.0	1.0	palace	'nV_V'	palace_3.jpg	1.0	1.0	Buildings	Nonliving_Things	63.75	5.0	missing data	0
64.6	0.85	1.2602940797805786	n/a	1.0	1.0	palace	'nV_V'	palace_3.jpg	1.0	1.0	Buildings	Nonliving_Things	64.6	5.0	missing data	0
65.45	0.85	1.2602940797805786	n/a	1.0	1.0	palace	'nV_V'	palace_3.jpg	1.0	1.0	Buildings	Nonliving_Things	65.45	5.0	missing data	0
66.3	0.85	1.2602940797805786	n/a	1.0	1.0	palace	'nV_V'	palace_3.jpg	1.0	1.0	Buildings	Nonliving_Things	66.3	5.0	missing data	0
67.14999999999999	0.85	1.090291976928711	n/a	0.0	2.0	lamp	'V_nV'	lamp_17.jpg	1.0	1.0	Furniture	Nonliving_Things	67.14999999999999	6.0	missing data	0
68.0	0.85	1.090291976928711	n/a	0.0	2.0	lamp	'V_nV'	lamp_17.jpg	1.0	1.0	Furniture	Nonliving_Things	68.0	6.0	missing data	0
68.85	0.85	1.090291976928711	n/a	0.0	2.0	lamp	'V_nV'	lamp_17.jpg	1.0	1.0	Furniture	Nonliving_Things	68.85	6.0	missing data	0
69.7	0.85	1.090291976928711	n/a	0.0	2.0	lamp	'V_nV'	lamp_17.jpg	1.0	1.0	Furniture	Nonliving_Things	69.7	6.0	missing data	0
70.55	0.85	1.090291976928711	n/a	0.0	2.0	lamp	'V_nV'	lamp_17.jpg	1.0	1.0	Furniture	Nonliving_Things	70.55	6.0	missing data	0
71.39999999999999	0.85	1.090291976928711	n/a	0.0	2.0	lamp	'V_nV'	lamp_17.jpg	1.0	1.0	Furniture	Nonliving_Things	71.39999999999999	6.0	missing data	0
72.25	0.85	1.090291976928711	n/a	0.0	2.0	lamp	'V_nV'	lamp_17.jpg	1.0	1.0	Furniture	Nonliving_Things	72.25	6.0	missing data	1
73.1	0.85	1.090291976928711	n/a	0.0	2.0	lamp	'V_nV'	lamp_17.jpg	1.0	1.0	Furniture	Nonliving_Things	73.1	6.0	missing data	1
73.95	0.85	1.090291976928711	n/a	0.0	2.0	lamp	'V_nV'	lamp_17.jpg	1.0	1.0	Furniture	Nonliving_Things	73.95	6.0	missing data	1
74.8	0.85	1.090291976928711	n/a	0.0	2.0	lamp	'V_nV'	lamp_17.jpg	1.0	1.0	Furniture	Nonliving_Things	74.8	6.0	missing data	1
75.64999999999999	0.85	1.090291976928711	n/a	0.0	2.0	lamp	'V_nV'	lamp_17.jpg	1.0	1.0	Furniture	Nonliving_Things	75.64999999999999	6.0	missing data	0
76.5	0.85	1.090291976928711	n/a	0.0	2.0	lamp	'V_nV'	lamp_17.jpg	1.0	1.0	Furniture	Nonliving_Things	76.5	6.0	missing data	0
77.35	0.85	1.090291976928711	n/a	0.0	2.0	lamp	'V_nV'	lamp_17.jpg	1.0	1.0	Furniture	Nonliving_Things	77.35	6.0	missing data	0
78.2	0.85	1.090291976928711	n/a	0.0	2.0	lamp	'V_nV'	lamp_17.jpg	1.0	1.0	Furniture	Nonliving_Things	78.2	6.0	missing data	0
79.05	0.85	1.090291976928711	n/a	0.0	2.0	lamp	'V_nV'	lamp_17.jpg	1.0	1.0	Furniture	Nonliving_Things	79.05	6.0	missing data	0
79.89999999999999	0.85	1.2103041410446167	n/a	1.0	1.0	frying-pan	'nV_V'	frying-pan_26.jpg	1.0	1.0	Kitchen_Uten	Nonliving_Things	79.89999999999999	7.0	missing data	0
80.75	0.85	1.2103041410446167	n/a	1.0	1.0	frying-pan	'nV_V'	frying-pan_26.jpg	1.0	1.0	Kitchen_Uten	Nonliving_Things	80.75	7.0	missing data	0
81.6	0.85	1.2103041410446167	n/a	1.0	1.0	frying-pan	'nV_V'	frying-pan_26.jpg	1.0	1.0	Kitchen_Uten	Nonliving_Things	81.6	7.0	missing data	0
82.45	0.85	1.2103041410446167	n/a	1.0	1.0	frying-pan	'nV_V'	frying-pan_26.jpg	1.0	1.0	Kitchen_Uten	Nonliving_Things	82.45	7.0	missing data	0
83.3	0.85	1.2103041410446167	n/a	1.0	1.0	frying-pan	'nV_V'	frying-pan_26.jpg	1.0	1.0	Kitchen_Uten	Nonliving_Things	83.3	7.0	missing data	0
84.14999999999999	0.85	1.2103041410446167	n/a	1.0	1.0	frying-pan	'nV_V'	frying-pan_26.jpg	1.0	1.0	Kitchen_Uten	Nonliving_Things	84.14999999999999	7.0	missing data	0
85.0	0.85	1.2103041410446167	n/a	1.0	1.0	frying-pan	'nV_V'	frying-pan_26.jpg	1.0	1.0	Kitchen_Uten	Nonliving_Things	85.0	7.0	missing data	1
85.85	0.85	1.2103041410446167	n/a	1.0	1.0	frying-pan	'nV_V'	frying-pan_26.jpg	1.0	1.0	Kitchen_Uten	Nonliving_Things	85.85	7.0	missing data	1
86.7	0.85	1.2103041410446167	n/a	1.0	1.0	frying-pan	'nV_V'	frying-pan_26.jpg	1.0	1.0	Kitchen_Uten	Nonliving_Things	86.7	7.0	missing data	1
87.55	0.85	1.2103041410446167	n/a	1.0	1.0	frying-pan	'nV_V'	frying-pan_26.jpg	1.0	1.0	Kitchen_Uten	Nonliving_Things	87.55	7.0	missing data	1
88.39999999999999	0.85	1.2103041410446167	n/a	1.0	1.0	frying-pan	'nV_V'	frying-pan_26.jpg	1.0	1.0	Kitchen_Uten	Nonliving_Things	88.39999999999999	7.0	missing data	0
89.25	0.85	1.2103041410446167	n/a	1.0	1.0	frying-pan	'nV_V'	frying-pan_26.jpg	1.0	1.0	Kitchen_Uten	Nonliving_Things	89.25	7.0	missing data	0
90.1	0.85	1.2103041410446167	n/a	1.0	1.0	frying-pan	'nV_V'	frying-pan_26.jpg	1.0	1.0	Kitchen_Uten	Nonliving_Things	90.1	7.0	missing data	0
90.95	0.85	1.2103041410446167	n/a	1.0	1.0	frying-pan	'nV_V'	frying-pan_26.jpg	1.0	1.0	Kitchen_Uten	Nonliving_Things	90.95	7.0	missing data	0
91.8	0.85	1.2103041410446167	n/a	1.0	1.0	frying-pan	'nV_V'	frying-pan_26.jpg	1.0	1.0	Kitchen_Uten	Nonliving_Things	91.8	7.0	missing data	0
92.65	0.85	1.2103041410446167	n/a	1.0	1.0	frying-pan	'nV_V'	frying-pan_26.jpg	1.0	1.0	Kitchen_Uten	Nonliving_Things	92.65	7.0	missing data	0
93.5	0.85	0.4903112351894378	0.4103001654148102	1.0	1.0	duck	'V_nV'	duck_20.jpg	1.0	1.0	Birds	Living_Things	93.5	8.0	unconscious	0
94.35	0.85	0.4903112351894378	0.4103001654148102	1.0	1.0	duck	'V_nV'	duck_20.jpg	1.0	1.0	Birds	Living_Things	94.35	8.0	unconscious	0
95.2	0.85	0.4903112351894378	0.4103001654148102	1.0	1.0	duck	'V_nV'	duck_20.jpg	1.0	1.0	Birds	Living_Things	95.2	8.0	unconscious	0
96.05	0.85	0.4903112351894378	0.4103001654148102	1.0	1.0	duck	'V_nV'	duck_20.jpg	1.0	1.0	Birds	Living_Things	96.05	8.0	unconscious	0
96.9	0.85	0.4903112351894378	0.4103001654148102	1.0	1.0	duck	'V_nV'	duck_20.jpg	1.0	1.0	Birds	Living_Things	96.9	8.0	unconscious	0
97.75	0.85	0.4903112351894378	0.4103001654148102	1.0	1.0	duck	'V_nV'	duck_20.jpg	1.0	1.0	Birds	Living_Things	97.75	8.0	unconscious	0
98.6	0.85	0.4903112351894378	0.4103001654148102	1.0	1.0	duck	'V_nV'	duck_20.jpg	1.0	1.0	Birds	Living_Things	98.6	8.0	unconscious	0
99.45	0.85	0.4903112351894378	0.4103001654148102	1.0	1.0	duck	'V_nV'	duck_20.jpg	1.0	1.0	Birds	Living_Things	99.45	8.0	unconscious	1
100.3	0.85	0.4903112351894378	0.4103001654148102	1.0	1.0	duck	'V_nV'	duck_20.jpg	1.0	1.0	Birds	Living_Things	100.3	8.0	unconscious	1
101.15	0.85	0.4903112351894378	0.4103001654148102	1.0	1.0	duck	'V_nV'	duck_20.jpg	1.0	1.0	Birds	Living_Things	101.15	8.0	unconscious	1
102.0	0.85	0.4903112351894378	0.4103001654148102	1.0	1.0	duck	'V_nV'	duck_20.jpg	1.0	1.0	Birds	Living_Things	102.0	8.0	unconscious	0
102.85	0.85	0.4903112351894378	0.4103001654148102	1.0	1.0	duck	'V_nV'	duck_20.jpg	1.0	1.0	Birds	Living_Things	102.85	8.0	unconscious	0
103.7	0.85	0.4903112351894378	0.4103001654148102	1.0	1.0	duck	'V_nV'	duck_20.jpg	1.0	1.0	Birds	Living_Things	103.7	8.0	unconscious	0
104.55	0.85	0.4903112351894378	0.4103001654148102	1.0	1.0	duck	'V_nV'	duck_20.jpg	1.0	1.0	Birds	Living_Things	104.55	8.0	unconscious	0
105.4	0.85	0.4903112351894378	0.4103001654148102	1.0	1.0	duck	'V_nV'	duck_20.jpg	1.0	1.0	Birds	Living_Things	105.4	8.0	unconscious	0
106.25	0.85	0.4903112351894378	0.4103001654148102	1.0	1.0	duck	'V_nV'	duck_20.jpg	1.0	1.0	Birds	Living_Things	106.25	8.0	unconscious	0
107.1	0.85	0.4903112351894378	0.4103001654148102	1.0	1.0	duck	'V_nV'	duck_20.jpg	1.0	1.0	Birds	Living_Things	107.1	8.0	unconscious	0
107.95	0.85	0.5202915072441101	0.3400975167751312	1.0	2.0	house	'V_nV'	house_14.jpg	2.0	2.0	Buildings	Nonliving_Things	107.95	9.0	unconscious	0
108.8	0.85	0.5202915072441101	0.3400975167751312	1.0	2.0	house	'V_nV'	house_14.jpg	2.0	2.0	Buildings	Nonliving_Things	108.8	9.0	unconscious	0
109.65	0.85	0.5202915072441101	0.3400975167751312	1.0	2.0	house	'V_nV'	house_14.jpg	2.0	2.0	Buildings	Nonliving_Things	109.65	9.0	unconscious	0
110.5	0.85	0.5202915072441101	0.3400975167751312	1.0	2.0	house	'V_nV'	house_14.jpg	2.0	2.0	Buildings	Nonliving_Things	110.5	9.0	unconscious	0
111.35	0.85	0.5202915072441101	0.3400975167751312	1.0	2.0	house	'V_nV'	house_14.jpg	2.0	2.0	Buildings	Nonliving_Things	111.35	9.0	unconscious	0
112.2	0.85	0.5202915072441101	0.3400975167751312	1.0	2.0	house	'V_nV'	house_14.jpg	2.0	2.0	Buildings	Nonliving_Things	112.2	9.0	unconscious	0
113.05	0.85	0.5202915072441101	0.3400975167751312	1.0	2.0	house	'V_nV'	house_14.jpg	2.0	2.0	Buildings	Nonliving_Things	113.05	9.0	unconscious	1
113.9	0.85	0.5202915072441101	0.3400975167751312	1.0	2.0	house	'V_nV'	house_14.jpg	2.0	2.0	Buildings	Nonliving_Things	113.9	9.0	unconscious	1
114.75	0.85	0.5202915072441101	0.3400975167751312	1.0	2.0	house	'V_nV'	house_14.jpg	2.0	2.0	Buildings	Nonliving_Things	114.75	9.0	unconscious	1
115.6	0.85	0.5202915072441101	0.3400975167751312	1.0	2.0	house	'V_nV'	house_14.jpg	2.0	2.0	Buildings	Nonliving_Things	115.6	9.0	unconscious	1
116.45	0.85	0.5202915072441101	0.3400975167751312	1.0	2.0	house	'V_nV'	house_14.jpg	2.0	2.0	Buildings	Nonliving_Things	116.45	9.0	unconscious	0
117.3	0.85	0.5202915072441101	0.3400975167751312	1.0	2.0	house	'V_nV'	house_14.jpg	2.0	2.0	Buildings	Nonliving_Things	117.3	9.0	unconscious	0
118.15	0.85	0.5202915072441101	0.3400975167751312	1.0	2.0	house	'V_nV'	house_14.jpg	2.0	2.0	Buildings	Nonliving_Things	118.15	9.0	unconscious	0
119.0	0.85	0.5202915072441101	0.3400975167751312	1.0	2.0	house	'V_nV'	house_14.jpg	2.0	2.0	Buildings	Nonliving_Things	119.0	9.0	unconscious	0
119.85	0.85	0.5202915072441101	0.3400975167751312	1.0	2.0	house	'V_nV'	house_14.jpg	2.0	2.0	Buildings	Nonliving_Things	119.85	9.0	unconscious	0
120.7	0.85	0.5202915072441101	0.3400975167751312	1.0	2.0	house	'V_nV'	house_14.jpg	2.0	2.0	Buildings	Nonliving_Things	120.7	9.0	unconscious	0
121.55	0.85	0.6603036522865295	0.2102902233600616	1.0	1.0	armadillo	'V_nV'	armadillo_16.jpg	4.0	1.0	Animals	Living_Things	121.55	10.0	glimpse	0
122.4	0.85	0.6603036522865295	0.2102902233600616	1.0	1.0	armadillo	'V_nV'	armadillo_16.jpg	4.0	1.0	Animals	Living_Things	122.4	10.0	glimpse	0
123.25	0.85	0.6603036522865295	0.2102902233600616	1.0	1.0	armadillo	'V_nV'	armadillo_16.jpg	4.0	1.0	Animals	Living_Things	123.25	10.0	glimpse	0
124.1	0.85	0.6603036522865295	0.2102902233600616	1.0	1.0	armadillo	'V_nV'	armadillo_16.jpg	4.0	1.0	Animals	Living_Things	124.1	10.0	glimpse	0
124.95	0.85	0.6603036522865295	0.2102902233600616	1.0	1.0	armadillo	'V_nV'	armadillo_16.jpg	4.0	1.0	Animals	Living_Things	124.95	10.0	glimpse	0
125.8	0.85	0.6603036522865295	0.2102902233600616	1.0	1.0	armadillo	'V_nV'	armadillo_16.jpg	4.0	1.0	Animals	Living_Things	125.8	10.0	glimpse	0
126.65	0.85	0.6603036522865295	0.2102902233600616	1.0	1.0	armadillo	'V_nV'	armadillo_16.jpg	4.0	1.0	Animals	Living_Things	126.65	10.0	glimpse	1
127.5	0.85	0.6603036522865295	0.2102902233600616	1.0	1.0	armadillo	'V_nV'	armadillo_16.jpg	4.0	1.0	Animals	Living_Things	127.5	10.0	glimpse	1
128.35	0.85	0.6603036522865295	0.2102902233600616	1.0	1.0	armadillo	'V_nV'	armadillo_16.jpg	4.0	1.0	Animals	Living_Things	128.35	10.0	glimpse	1
129.2	0.85	0.6603036522865295	0.2102902233600616	1.0	1.0	armadillo	'V_nV'	armadillo_16.jpg	4.0	1.0	Animals	Living_Things	129.2	10.0	glimpse	1
130.04999999999998	0.85	0.6603036522865295	0.2102902233600616	1.0	1.0	armadillo	'V_nV'	armadillo_16.jpg	4.0	1.0	Animals	Living_Things	130.04999999999998	10.0	glimpse	0
130.9	0.85	0.6603036522865295	0.2102902233600616	1.0	1.0	armadillo	'V_nV'	armadillo_16.jpg	4.0	1.0	Animals	Living_Things	130.9	10.0	glimpse	0
131.75	0.85	0.6603036522865295	0.2102902233600616	1.0	1.0	armadillo	'V_nV'	armadillo_16.jpg	4.0	1.0	Animals	Living_Things	131.75	10.0	glimpse	0
132.6	0.85	0.6603036522865295	0.2102902233600616	1.0	1.0	armadillo	'V_nV'	armadillo_16.jpg	4.0	1.0	Animals	Living_Things	132.6	10.0	glimpse	0
133.45	0.85	0.6603036522865295	0.2102902233600616	1.0	1.0	armadillo	'V_nV'	armadillo_16.jpg	4.0	1.0	Animals	Living_Things	133.45	10.0	glimpse	0
134.29999999999998	0.85	0.3402984738349914	0.7301652431488037	0.0	2.0	barn-owl	'nV_V'	barn-owl_17.jpg	3.0	1.0	Birds	Living_Things	134.29999999999998	11.0	unconscious	0
135.15	0.85	0.3402984738349914	0.7301652431488037	0.0	2.0	barn-owl	'nV_V'	barn-owl_17.jpg	3.0	1.0	Birds	Living_Things	135.15	11.0	unconscious	0
136.0	0.85	0.3402984738349914	0.7301652431488037	0.0	2.0	barn-owl	'nV_V'	barn-owl_17.jpg	3.0	1.0	Birds	Living_Things	136.0	11.0	unconscious	0
136.85	0.85	0.3402984738349914	0.7301652431488037	0.0	2.0	barn-owl	'nV_V'	barn-owl_17.jpg	3.0	1.0	Birds	Living_Things	136.85	11.0	unconscious	0
137.7	0.85	0.3402984738349914	0.7301652431488037	0.0	2.0	barn-owl	'nV_V'	barn-owl_17.jpg	3.0	1.0	Birds	Living_Things	137.7	11.0	unconscious	0
138.54999999999998	0.85	0.3402984738349914	0.7301652431488037	0.0	2.0	barn-owl	'nV_V'	barn-owl_17.jpg	3.0	1.0	Birds	Living_Things	138.54999999999998	11.0	unconscious	0
139.4	0.85	0.3402984738349914	0.7301652431488037	0.0	2.0	barn-owl	'nV_V'	barn-owl_17.jpg	3.0	1.0	Birds	Living_Things	139.4	11.0	unconscious	0
140.25	0.85	0.3402984738349914	0.7301652431488037	0.0	2.0	barn-owl	'nV_V'	barn-owl_17.jpg	3.0	1.0	Birds	Living_Things	140.25	11.0	unconscious	1
141.1	0.85	0.3402984738349914	0.7301652431488037	0.0	2.0	barn-owl	'nV_V'	barn-owl_17.jpg	3.0	1.0	Birds	Living_Things	141.1	11.0	unconscious	1
141.95	0.85	0.3402984738349914	0.7301652431488037	0.0	2.0	barn-owl	'nV_V'	barn-owl_17.jpg	3.0	1.0	Birds	Living_Things	141.95	11.0	unconscious	1
142.79999999999998	0.85	0.3402984738349914	0.7301652431488037	0.0	2.0	barn-owl	'nV_V'	barn-owl_17.jpg	3.0	1.0	Birds	Living_Things	142.79999999999998	11.0	unconscious	0
143.65	0.85	0.3402984738349914	0.7301652431488037	0.0	2.0	barn-owl	'nV_V'	barn-owl_17.jpg	3.0	1.0	Birds	Living_Things	143.65	11.0	unconscious	0
144.5	0.85	0.3402984738349914	0.7301652431488037	0.0	2.0	barn-owl	'nV_V'	barn-owl_17.jpg	3.0	1.0	Birds	Living_Things	144.5	11.0	unconscious	0
145.35	0.85	0.3402984738349914	0.7301652431488037	0.0	2.0	barn-owl	'nV_V'	barn-owl_17.jpg	3.0	1.0	Birds	Living_Things	145.35	11.0	unconscious	0
146.2	0.85	0.3402984738349914	0.7301652431488037	0.0	2.0	barn-owl	'nV_V'	barn-owl_17.jpg	3.0	1.0	Birds	Living_Things	146.2	11.0	unconscious	0
147.04999999999998	0.85	0.3402984738349914	0.7301652431488037	0.0	2.0	barn-owl	'nV_V'	barn-owl_17.jpg	3.0	1.0	Birds	Living_Things	147.04999999999998	11.0	unconscious	0
147.9	0.85	0.3402984738349914	0.7301652431488037	0.0	2.0	barn-owl	'nV_V'	barn-owl_17.jpg	3.0	1.0	Birds	Living_Things	147.9	11.0	unconscious	0
148.75	0.85	0.6104247570037842	0.2403669357299805	1.0	1.0	drum	'nV_V'	drum_21.jpg	5.0	1.0	Musical_Inst	Nonliving_Things	148.75	12.0	conscious	0
149.6	0.85	0.6104247570037842	0.2403669357299805	1.0	1.0	drum	'nV_V'	drum_21.jpg	5.0	1.0	Musical_Inst	Nonliving_Things	149.6	12.0	conscious	0
150.45	0.85	0.6104247570037842	0.2403669357299805	1.0	1.0	drum	'nV_V'	drum_21.jpg	5.0	1.0	Musical_Inst	Nonliving_Things	150.45	12.0	conscious	0
151.29999999999998	0.85	0.6104247570037842	0.2403669357299805	1.0	1.0	drum	'nV_V'	drum_21.jpg	5.0	1.0	Musical_Inst	Nonliving_Things	151.29999999999998	12.0	conscious	0
152.15	0.85	0.6104247570037842	0.2403669357299805	1.0	1.0	drum	'nV_V'	drum_21.jpg	5.0	1.0	Musical_Inst	Nonliving_Things	152.15	12.0	conscious	0
153.0	0.85	0.6104247570037842	0.2403669357299805	1.0	1.0	drum	'nV_V'	drum_21.jpg	5.0	1.0	Musical_Inst	Nonliving_Things	153.0	12.0	conscious	0
153.85	0.85	0.6104247570037842	0.2403669357299805	1.0	1.0	drum	'nV_V'	drum_21.jpg	5.0	1.0	Musical_Inst	Nonliving_Things	153.85	12.0	conscious	0
154.7	0.85	0.6104247570037842	0.2403669357299805	1.0	1.0	drum	'nV_V'	drum_21.jpg	5.0	1.0	Musical_Inst	Nonliving_Things	154.7	12.0	conscious	1
155.54999999999998	0.85	0.6104247570037842	0.2403669357299805	1.0	1.0	drum	'nV_V'	drum_21.jpg	5.0	1.0	Musical_Inst	Nonliving_Things	155.54999999999998	12.0	conscious	1
156.4	0.85	0.6104247570037842	0.2403669357299805	1.0	1.0	drum	'nV_V'	drum_21.jpg	5.0	1.0	Musical_Inst	Nonliving_Things	156.4	12.0	conscious	1
157.25	0.85	0.6104247570037842	0.2403669357299805	1.0	1.0	drum	'nV_V'	drum_21.jpg	5.0	1.0	Musical_Inst	Nonliving_Things	157.25	12.0	conscious	0
158.1	0.85	0.6104247570037842	0.2403669357299805	1.0	1.0	drum	'nV_V'	drum_21.jpg	5.0	1.0	Musical_Inst	Nonliving_Things	158.1	12.0	conscious	0
158.95	0.85	0.6104247570037842	0.2403669357299805	1.0	1.0	drum	'nV_V'	drum_21.jpg	5.0	1.0	Musical_Inst	Nonliving_Things	158.95	12.0	conscious	0
159.79999999999998	0.85	0.6104247570037842	0.2403669357299805	1.0	1.0	drum	'nV_V'	drum_21.jpg	5.0	1.0	Musical_Inst	Nonliving_Things	159.79999999999998	12.0	conscious	0
160.65	0.85	0.6104247570037842	0.2403669357299805	1.0	1.0	drum	'nV_V'	drum_21.jpg	5.0	1.0	Musical_Inst	Nonliving_Things	160.65	12.0	conscious	0
161.5	0.85	0.6402954459190369	0.2803040742874145	1.0	1.0	fondue	'nV_V'	fondue_13.jpg	2.0	1.0	Kitchen_Uten	Nonliving_Things	161.5	13.0	conscious	0
162.35	0.85	0.6402954459190369	0.2803040742874145	1.0	1.0	fondue	'nV_V'	fondue_13.jpg	2.0	1.0	Kitchen_Uten	Nonliving_Things	162.35	13.0	conscious	0
163.2	0.85	0.6402954459190369	0.2803040742874145	1.0	1.0	fondue	'nV_V'	fondue_13.jpg	2.0	1.0	Kitchen_Uten	Nonliving_Things	163.2	13.0	conscious	0
164.04999999999998	0.85	0.6402954459190369	0.2803040742874145	1.0	1.0	fondue	'nV_V'	fondue_13.jpg	2.0	1.0	Kitchen_Uten	Nonliving_Things	164.04999999999998	13.0	conscious	0
164.9	0.85	0.6402954459190369	0.2803040742874145	1.0	1.0	fondue	'nV_V'	fondue_13.jpg	2.0	1.0	Kitchen_Uten	Nonliving_Things	164.9	13.0	conscious	0
165.75	0.85	0.6402954459190369	0.2803040742874145	1.0	1.0	fondue	'nV_V'	fondue_13.jpg	2.0	1.0	Kitchen_Uten	Nonliving_Things	165.75	13.0	conscious	0
166.6	0.85	0.6402954459190369	0.2803040742874145	1.0	1.0	fondue	'nV_V'	fondue_13.jpg	2.0	1.0	Kitchen_Uten	Nonliving_Things	166.6	13.0	conscious	0
167.45	0.85	0.6402954459190369	0.2803040742874145	1.0	1.0	fondue	'nV_V'	fondue_13.jpg	2.0	1.0	Kitchen_Uten	Nonliving_Things	167.45	13.0	conscious	1
168.29999999999998	0.85	0.6402954459190369	0.2803040742874145	1.0	1.0	fondue	'nV_V'	fondue_13.jpg	2.0	1.0	Kitchen_Uten	Nonliving_Things	168.29999999999998	13.0	conscious	1
169.15	0.85	0.6402954459190369	0.2803040742874145	1.0	1.0	fondue	'nV_V'	fondue_13.jpg	2.0	1.0	Kitchen_Uten	Nonliving_Things	169.15	13.0	conscious	1
170.0	0.85	0.6402954459190369	0.2803040742874145	1.0	1.0	fondue	'nV_V'	fondue_13.jpg	2.0	1.0	Kitchen_Uten	Nonliving_Things	170.0	13.0	conscious	0
170.85	0.85	0.6402954459190369	0.2803040742874145	1.0	1.0	fondue	'nV_V'	fondue_13.jpg	2.0	1.0	Kitchen_Uten	Nonliving_Things	170.85	13.0	conscious	0
171.7	0.85	0.6402954459190369	0.2803040742874145	1.0	1.0	fondue	'nV_V'	fondue_13.jpg	2.0	1.0	Kitchen_Uten	Nonliving_Things	171.7	13.0	conscious	0
172.54999999999998	0.85	0.6402954459190369	0.2803040742874145	1.0	1.0	fondue	'nV_V'	fondue_13.jpg	2.0	1.0	Kitchen_Uten	Nonliving_Things	172.54999999999998	13.0	conscious	0
173.4	0.85	0.6402954459190369	0.2803040742874145	1.0	1.0	fondue	'nV_V'	fondue_13.jpg	2.0	1.0	Kitchen_Uten	Nonliving_Things	173.4	13.0	conscious	0
174.25	0.85	0.8203694224357605	0.1603239178657531	1.0	1.0	butterfly	'V_nV'	butterfly_2.jpg	1.0	1.0	Insects	Living_Things	174.25	14.0	unconscious	0
175.1	0.85	0.8203694224357605	0.1603239178657531	1.0	1.0	butterfly	'V_nV'	butterfly_2.jpg	1.0	1.0	Insects	Living_Things	175.1	14.0	unconscious	0
175.95	0.85	0.8203694224357605	0.1603239178657531	1.0	1.0	butterfly	'V_nV'	butterfly_2.jpg	1.0	1.0	Insects	Living_Things	175.95	14.0	unconscious	0
176.79999999999998	0.85	0.8203694224357605	0.1603239178657531	1.0	1.0	butterfly	'V_nV'	butterfly_2.jpg	1.0	1.0	Insects	Living_Things	176.79999999999998	14.0	unconscious	0
177.65	0.85	0.8203694224357605	0.1603239178657531	1.0	1.0	butterfly	'V_nV'	butterfly_2.jpg	1.0	1.0	Insects	Living_Things	177.65	14.0	unconscious	0
178.5	0.85	0.8203694224357605	0.1603239178657531	1.0	1.0	butterfly	'V_nV'	butterfly_2.jpg	1.0	1.0	Insects	Living_Things	178.5	14.0	unconscious	0
179.35	0.85	0.8203694224357605	0.1603239178657531	1.0	1.0	butterfly	'V_nV'	butterfly_2.jpg	1.0	1.0	Insects	Living_Things	179.35	14.0	unconscious	1
180.2	0.85	0.8203694224357605	0.1603239178657531	1.0	1.0	butterfly	'V_nV'	butterfly_2.jpg	1.0	1.0	Insects	Living_Things	180.2	14.0	unconscious	1
181.05	0.85	0.8203694224357605	0.1603239178657531	1.0	1.0	butterfly	'V_nV'	butterfly_2.jpg	1.0	1.0	Insects	Living_Things	181.05	14.0	unconscious	1
181.9	0.85	0.8203694224357605	0.1603239178657531	1.0	1.0	butterfly	'V_nV'	butterfly_2.jpg	1.0	1.0	Insects	Living_Things	181.9	14.0	unconscious	1
182.75	0.85	0.8203694224357605	0.1603239178657531	1.0	1.0	butterfly	'V_nV'	butterfly_2.jpg	1.0	1.0	Insects	Living_Things	182.75	14.0	unconscious	0
183.6	0.85	0.8203694224357605	0.1603239178657531	1.0	1.0	butterfly	'V_nV'	butterfly_2.jpg	1.0	1.0	Insects	Living_Things	183.6	14.0	unconscious	0
184.45	0.85	0.8203694224357605	0.1603239178657531	1.0	1.0	butterfly	'V_nV'	butterfly_2.jpg	1.0	1.0	Insects	Living_Things	184.45	14.0	unconscious	0
185.3	0.85	0.8203694224357605	0.1603239178657531	1.0	1.0	butterfly	'V_nV'	butterfly_2.jpg	1.0	1.0	Insects	Living_Things	185.3	14.0	unconscious	0
186.15	0.85	0.8203694224357605	0.1603239178657531	1.0	1.0	butterfly	'V_nV'	butterfly_2.jpg	1.0	1.0	Insects	Living_Things	186.15	14.0	unconscious	0
187.0	0.85	0.8203694224357605	0.1603239178657531	1.0	1.0	butterfly	'V_nV'	butterfly_2.jpg	1.0	1.0	Insects	Living_Things	187.0	14.0	unconscious	0
187.85	0.85	0.8203694224357605	0.1603239178657531	1.0	1.0	butterfly	'V_nV'	butterfly_2.jpg	1.0	1.0	Insects	Living_Things	187.85	14.0	unconscious	0
188.7	0.85	0.3201623558998108	0.0503629297018051	0.0	1.0	cheetah	'V_nV'	cheetah_1.jpg	4.0	2.0	Animals	Living_Things	188.7	15.0	unconscious	0
189.55	0.85	0.3201623558998108	0.0503629297018051	0.0	1.0	cheetah	'V_nV'	cheetah_1.jpg	4.0	2.0	Animals	Living_Things	189.55	15.0	unconscious	0
190.4	0.85	0.3201623558998108	0.0503629297018051	0.0	1.0	cheetah	'V_nV'	cheetah_1.jpg	4.0	2.0	Animals	Living_Things	190.4	15.0	unconscious	0
191.25	0.85	0.3201623558998108	0.0503629297018051	0.0	1.0	cheetah	'V_nV'	cheetah_1.jpg	4.0	2.0	Animals	Living_Things	191.25	15.0	unconscious	0
192.1	0.85	0.3201623558998108	0.0503629297018051	0.0	1.0	cheetah	'V_nV'	cheetah_1.jpg	4.0	2.0	Animals	Living_Things	192.1	15.0	unconscious	0
192.95	0.85	0.3201623558998108	0.0503629297018051	0.0	1.0	cheetah	'V_nV'	cheetah_1.jpg	4.0	2.0	Animals	Living_Things	192.95	15.0	unconscious	0
193.8	0.85	0.3201623558998108	0.0503629297018051	0.0	1.0	cheetah	'V_nV'	cheetah_1.jpg	4.0	2.0	Animals	Living_Things	193.8	15.0	unconscious	1
194.65	0.85	0.3201623558998108	0.0503629297018051	0.0	1.0	cheetah	'V_nV'	cheetah_1.jpg	4.0	2.0	Animals	Living_Things	194.65	15.0	unconscious	1
195.5	0.85	0.3201623558998108	0.0503629297018051	0.0	1.0	cheetah	'V_nV'	cheetah_1.jpg	4.0	2.0	Animals	Living_Things	195.5	15.0	unconscious	1
196.35	0.85	0.3201623558998108	0.0503629297018051	0.0	1.0	cheetah	'V_nV'	cheetah_1.jpg	4.0	2.0	Animals	Living_Things	196.35	15.0	unconscious	1
197.2	0.85	0.3201623558998108	0.0503629297018051	0.0	1.0	cheetah	'V_nV'	cheetah_1.jpg	4.0	2.0	Animals	Living_Things	197.2	15.0	unconscious	0
198.05	0.85	0.3201623558998108	0.0503629297018051	0.0	1.0	cheetah	'V_nV'	cheetah_1.jpg	4.0	2.0	Animals	Living_Things	198.05	15.0	unconscious	0
198.9	0.85	0.3201623558998108	0.0503629297018051	0.0	1.0	cheetah	'V_nV'	cheetah_1.jpg	4.0	2.0	Animals	Living_Things	198.9	15.0	unconscious	0
199.75	0.85	0.3201623558998108	0.0503629297018051	0.0	1.0	cheetah	'V_nV'	cheetah_1.jpg	4.0	2.0	Animals	Living_Things	199.75	15.0	unconscious	0
200.6	0.85	0.3201623558998108	0.0503629297018051	0.0	1.0	cheetah	'V_nV'	cheetah_1.jpg	4.0	2.0	Animals	Living_Things	200.6	15.0	unconscious	0
201.45	0.85	0.3201623558998108	0.0503629297018051	0.0	1.0	cheetah	'V_nV'	cheetah_1.jpg	4.0	2.0	Animals	Living_Things	201.45	15.0	unconscious	0
202.3	0.85	0.3303111493587494	0.1803092807531356	0.0	2.0	mill	'V_nV'	mill_6.jpg	6.0	1.0	Buildings	Nonliving_Things	202.3	16.0	unconscious	0
203.15	0.85	0.3303111493587494	0.1803092807531356	0.0	2.0	mill	'V_nV'	mill_6.jpg	6.0	1.0	Buildings	Nonliving_Things	203.15	16.0	unconscious	0
204.0	0.85	0.3303111493587494	0.1803092807531356	0.0	2.0	mill	'V_nV'	mill_6.jpg	6.0	1.0	Buildings	Nonliving_Things	204.0	16.0	unconscious	0
204.85	0.85	0.3303111493587494	0.1803092807531356	0.0	2.0	mill	'V_nV'	mill_6.jpg	6.0	1.0	Buildings	Nonliving_Things	204.85	16.0	unconscious	0
205.7	0.85	0.3303111493587494	0.1803092807531356	0.0	2.0	mill	'V_nV'	mill_6.jpg	6.0	1.0	Buildings	Nonliving_Things	205.7	16.0	unconscious	0
206.55	0.85	0.3303111493587494	0.1803092807531356	0.0	2.0	mill	'V_nV'	mill_6.jpg	6.0	1.0	Buildings	Nonliving_Things	206.55	16.0	unconscious	0
207.4	0.85	0.3303111493587494	0.1803092807531356	0.0	2.0	mill	'V_nV'	mill_6.jpg	6.0	1.0	Buildings	Nonliving_Things	207.4	16.0	unconscious	1
208.25	0.85	0.3303111493587494	0.1803092807531356	0.0	2.0	mill	'V_nV'	mill_6.jpg	6.0	1.0	Buildings	Nonliving_Things	208.25	16.0	unconscious	1
209.1	0.85	0.3303111493587494	0.1803092807531356	0.0	2.0	mill	'V_nV'	mill_6.jpg	6.0	1.0	Buildings	Nonliving_Things	209.1	16.0	unconscious	1
209.95	0.85	0.3303111493587494	0.1803092807531356	0.0	2.0	mill	'V_nV'	mill_6.jpg	6.0	1.0	Buildings	Nonliving_Things	209.95	16.0	unconscious	1
210.8	0.85	0.3303111493587494	0.1803092807531356	0.0	2.0	mill	'V_nV'	mill_6.jpg	6.0	1.0	Buildings	Nonliving_Things	210.8	16.0	unconscious	0
211.65	0.85	0.3303111493587494	0.1803092807531356	0.0	2.0	mill	'V_nV'	mill_6.jpg	6.0	1.0	Buildings	Nonliving_Things	211.65	16.0	unconscious	0
212.5	0.85	0.3303111493587494	0.1803092807531356	0.0	2.0	mill	'V_nV'	mill_6.jpg	6.0	1.0	Buildings	Nonliving_Things	212.5	16.0	unconscious	0
213.35	0.85	0.3303111493587494	0.1803092807531356	0.0	2.0	mill	'V_nV'	mill_6.jpg	6.0	1.0	Buildings	Nonliving_Things	213.35	16.0	unconscious	0
214.2	0.85	0.3903033435344696	0.0003239102079533	1.0	1.0	cup	'nV_V'	cup_8.jpg	7.0	1.0	Kitchen_Uten	Nonliving_Things	214.2	17.0	conscious	0
215.05	0.85	0.3903033435344696	0.0003239102079533	1.0	1.0	cup	'nV_V'	cup_8.jpg	7.0	1.0	Kitchen_Uten	Nonliving_Things	215.05	17.0	conscious	0
215.9	0.85	0.3903033435344696	0.0003239102079533	1.0	1.0	cup	'nV_V'	cup_8.jpg	7.0	1.0	Kitchen_Uten	Nonliving_Things	215.9	17.0	conscious	0
216.75	0.85	0.3903033435344696	0.0003239102079533	1.0	1.0	cup	'nV_V'	cup_8.jpg	7.0	1.0	Kitchen_Uten	Nonliving_Things	216.75	17.0	conscious	0
217.6	0.85	0.3903033435344696	0.0003239102079533	1.0	1.0	cup	'nV_V'	cup_8.jpg	7.0	1.0	Kitchen_Uten	Nonliving_Things	217.6	17.0	conscious	0
218.45	0.85	0.3903033435344696	0.0003239102079533	1.0	1.0	cup	'nV_V'	cup_8.jpg	7.0	1.0	Kitchen_Uten	Nonliving_Things	218.45	17.0	conscious	0
219.3	0.85	0.3903033435344696	0.0003239102079533	1.0	1.0	cup	'nV_V'	cup_8.jpg	7.0	1.0	Kitchen_Uten	Nonliving_Things	219.3	17.0	conscious	0
220.15	0.85	0.3903033435344696	0.0003239102079533	1.0	1.0	cup	'nV_V'	cup_8.jpg	7.0	1.0	Kitchen_Uten	Nonliving_Things	220.15	17.0	conscious	1
221.0	0.85	0.3903033435344696	0.0003239102079533	1.0	1.0	cup	'nV_V'	cup_8.jpg	7.0	1.0	Kitchen_Uten	Nonliving_Things	221.0	17.0	conscious	1
221.85	0.85	0.3903033435344696	0.0003239102079533	1.0	1.0	cup	'nV_V'	cup_8.jpg	7.0	1.0	Kitchen_Uten	Nonliving_Things	221.85	17.0	conscious	1
222.7	0.85	0.3903033435344696	0.0003239102079533	1.0	1.0	cup	'nV_V'	cup_8.jpg	7.0	1.0	Kitchen_Uten	Nonliving_Things	222.7	17.0	conscious	0
223.55	0.85	0.3903033435344696	0.0003239102079533	1.0	1.0	cup	'nV_V'	cup_8.jpg	7.0	1.0	Kitchen_Uten	Nonliving_Things	223.55	17.0	conscious	0
224.4	0.85	0.3903033435344696	0.0003239102079533	1.0	1.0	cup	'nV_V'	cup_8.jpg	7.0	1.0	Kitchen_Uten	Nonliving_Things	224.4	17.0	conscious	0
225.25	0.85	0.3903033435344696	0.0003239102079533	1.0	1.0	cup	'nV_V'	cup_8.jpg	7.0	1.0	Kitchen_Uten	Nonliving_Things	225.25	17.0	conscious	0
226.1	0.85	0.3903033435344696	0.0003239102079533	1.0	1.0	cup	'nV_V'	cup_8.jpg	7.0	1.0	Kitchen_Uten	Nonliving_Things	226.1	17.0	conscious	0
226.95	0.85	0.3903033435344696	0.0003239102079533	1.0	1.0	cup	'nV_V'	cup_8.jpg	7.0	1.0	Kitchen_Uten	Nonliving_Things	226.95	17.0	conscious	0
227.8	0.85	0.3903033435344696	0.0003239102079533	1.0	1.0	cup	'nV_V'	cup_8.jpg	7.0	1.0	Kitchen_Uten	Nonliving_Things	227.8	17.0	conscious	0
228.65	0.85	0.4102991819381714	0.2103025019168853	1.0	1.0	motorbike	'nV_V'	motorbike_6.jpg	5.0	1.0	Vehicles	Nonliving_Things	228.65	18.0	conscious	0
229.5	0.85	0.4102991819381714	0.2103025019168853	1.0	1.0	motorbike	'nV_V'	motorbike_6.jpg	5.0	1.0	Vehicles	Nonliving_Things	229.5	18.0	conscious	0
230.35	0.85	0.4102991819381714	0.2103025019168853	1.0	1.0	motorbike	'nV_V'	motorbike_6.jpg	5.0	1.0	Vehicles	Nonliving_Things	230.35	18.0	conscious	0
231.2	0.85	0.4102991819381714	0.2103025019168853	1.0	1.0	motorbike	'nV_V'	motorbike_6.jpg	5.0	1.0	Vehicles	Nonliving_Things	231.2	18.0	conscious	0
232.05	0.85	0.4102991819381714	0.2103025019168853	1.0	1.0	motorbike	'nV_V'	motorbike_6.jpg	5.0	1.0	Vehicles	Nonliving_Things	232.05	18.0	conscious	0
232.9	0.85	0.4102991819381714	0.2103025019168853	1.0	1.0	motorbike	'nV_V'	motorbike_6.jpg	5.0	1.0	Vehicles	Nonliving_Things	232.9	18.0	conscious	0
233.75	0.85	0.4102991819381714	0.2103025019168853	1.0	1.0	motorbike	'nV_V'	motorbike_6.jpg	5.0	1.0	Vehicles	Nonliving_Things	233.75	18.0	conscious	1
234.6	0.85	0.4102991819381714	0.2103025019168853	1.0	1.0	motorbike	'nV_V'	motorbike_6.jpg	5.0	1.0	Vehicles	Nonliving_Things	234.6	18.0	conscious	1
235.45	0.85	0.4102991819381714	0.2103025019168853	1.0	1.0	motorbike	'nV_V'	motorbike_6.jpg	5.0	1.0	Vehicles	Nonliving_Things	235.45	18.0	conscious	1
236.3	0.85	0.4102991819381714	0.2103025019168853	1.0	1.0	motorbike	'nV_V'	motorbike_6.jpg	5.0	1.0	Vehicles	Nonliving_Things	236.3	18.0	conscious	1
237.15	0.85	0.4102991819381714	0.2103025019168853	1.0	1.0	motorbike	'nV_V'	motorbike_6.jpg	5.0	1.0	Vehicles	Nonliving_Things	237.15	18.0	conscious	0
238.0	0.85	0.4102991819381714	0.2103025019168853	1.0	1.0	motorbike	'nV_V'	motorbike_6.jpg	5.0	1.0	Vehicles	Nonliving_Things	238.0	18.0	conscious	0
238.85	0.85	0.4102991819381714	0.2103025019168853	1.0	1.0	motorbike	'nV_V'	motorbike_6.jpg	5.0	1.0	Vehicles	Nonliving_Things	238.85	18.0	conscious	0
239.7	0.85	0.4102991819381714	0.2103025019168853	1.0	1.0	motorbike	'nV_V'	motorbike_6.jpg	5.0	1.0	Vehicles	Nonliving_Things	239.7	18.0	conscious	0
240.55	0.85	0.4102991819381714	0.2103025019168853	1.0	1.0	motorbike	'nV_V'	motorbike_6.jpg	5.0	1.0	Vehicles	Nonliving_Things	240.55	18.0	conscious	0
241.4	0.85	0.3403053879737854	0.1703163832426071	0.0	1.0	elephant	'V_nV'	elephant_7.jpg	3.0	2.0	Animals	Living_Things	241.4	19.0	unconscious	0
242.25	0.85	0.3403053879737854	0.1703163832426071	0.0	1.0	elephant	'V_nV'	elephant_7.jpg	3.0	2.0	Animals	Living_Things	242.25	19.0	unconscious	0
243.1	0.85	0.3403053879737854	0.1703163832426071	0.0	1.0	elephant	'V_nV'	elephant_7.jpg	3.0	2.0	Animals	Living_Things	243.1	19.0	unconscious	0
243.95	0.85	0.3403053879737854	0.1703163832426071	0.0	1.0	elephant	'V_nV'	elephant_7.jpg	3.0	2.0	Animals	Living_Things	243.95	19.0	unconscious	0
244.8	0.85	0.3403053879737854	0.1703163832426071	0.0	1.0	elephant	'V_nV'	elephant_7.jpg	3.0	2.0	Animals	Living_Things	244.8	19.0	unconscious	0
245.65	0.85	0.3403053879737854	0.1703163832426071	0.0	1.0	elephant	'V_nV'	elephant_7.jpg	3.0	2.0	Animals	Living_Things	245.65	19.0	unconscious	0
246.5	0.85	0.3403053879737854	0.1703163832426071	0.0	1.0	elephant	'V_nV'	elephant_7.jpg	3.0	2.0	Animals	Living_Things	246.5	19.0	unconscious	1
247.35	0.85	0.3403053879737854	0.1703163832426071	0.0	1.0	elephant	'V_nV'	elephant_7.jpg	3.0	2.0	Animals	Living_Things	247.35	19.0	unconscious	1
248.2	0.85	0.3403053879737854	0.1703163832426071	0.0	1.0	elephant	'V_nV'	elephant_7.jpg	3.0	2.0	Animals	Living_Things	248.2	19.0	unconscious	1
249.05	0.85	0.3403053879737854	0.1703163832426071	0.0	1.0	elephant	'V_nV'	elephant_7.jpg	3.0	2.0	Animals	Living_Things	249.05	19.0	unconscious	1
249.9	0.85	0.3403053879737854	0.1703163832426071	0.0	1.0	elephant	'V_nV'	elephant_7.jpg	3.0	2.0	Animals	Living_Things	249.9	19.0	unconscious	0
250.75	0.85	0.3403053879737854	0.1703163832426071	0.0	1.0	elephant	'V_nV'	elephant_7.jpg	3.0	2.0	Animals	Living_Things	250.75	19.0	unconscious	0
251.6	0.85	0.3403053879737854	0.1703163832426071	0.0	1.0	elephant	'V_nV'	elephant_7.jpg	3.0	2.0	Animals	Living_Things	251.6	19.0	unconscious	0
252.45	0.85	0.3403053879737854	0.1703163832426071	0.0	1.0	elephant	'V_nV'	elephant_7.jpg	3.0	2.0	Animals	Living_Things	252.45	19.0	unconscious	0
253.3	0.85	0.3403053879737854	0.1703163832426071	0.0	1.0	elephant	'V_nV'	elephant_7.jpg	3.0	2.0	Animals	Living_Things	253.3	19.0	unconscious	0
254.15	0.85	0.3403053879737854	0.1703163832426071	0.0	1.0	elephant	'V_nV'	elephant_7.jpg	3.0	2.0	Animals	Living_Things	254.15	19.0	unconscious	0
255.0	0.85	0.6302487850189209	0.2803118526935577	1.0	1.0	filling-cabinet	'nV_V'	filling-cabinet_5.jp	6.0	1.0	Furniture	Nonliving_Things	255.0	20.0	glimpse	0
255.85	0.85	0.6302487850189209	0.2803118526935577	1.0	1.0	filling-cabinet	'nV_V'	filling-cabinet_5.jp	6.0	1.0	Furniture	Nonliving_Things	255.85	20.0	glimpse	0
256.7	0.85	0.6302487850189209	0.2803118526935577	1.0	1.0	filling-cabinet	'nV_V'	filling-cabinet_5.jp	6.0	1.0	Furniture	Nonliving_Things	256.7	20.0	glimpse	0
257.55	0.85	0.6302487850189209	0.2803118526935577	1.0	1.0	filling-cabinet	'nV_V'	filling-cabinet_5.jp	6.0	1.0	Furniture	Nonliving_Things	257.55	20.0	glimpse	0
258.4	0.85	0.6302487850189209	0.2803118526935577	1.0	1.0	filling-cabinet	'nV_V'	filling-cabinet_5.jp	6.0	1.0	Furniture	Nonliving_Things	258.4	20.0	glimpse	0
259.25	0.85	0.6302487850189209	0.2803118526935577	1.0	1.0	filling-cabinet	'nV_V'	filling-cabinet_5.jp	6.0	1.0	Furniture	Nonliving_Things	259.25	20.0	glimpse	0
260.1	0.85	0.6302487850189209	0.2803118526935577	1.0	1.0	filling-cabinet	'nV_V'	filling-cabinet_5.jp	6.0	1.0	Furniture	Nonliving_Things	260.1	20.0	glimpse	1
260.95	0.85	0.6302487850189209	0.2803118526935577	1.0	1.0	filling-cabinet	'nV_V'	filling-cabinet_5.jp	6.0	1.0	Furniture	Nonliving_Things	260.95	20.0	glimpse	1
261.8	0.85	0.6302487850189209	0.2803118526935577	1.0	1.0	filling-cabinet	'nV_V'	filling-cabinet_5.jp	6.0	1.0	Furniture	Nonliving_Things	261.8	20.0	glimpse	1
262.65	0.85	0.6302487850189209	0.2803118526935577	1.0	1.0	filling-cabinet	'nV_V'	filling-cabinet_5.jp	6.0	1.0	Furniture	Nonliving_Things	262.65	20.0	glimpse	1
263.5	0.85	0.6302487850189209	0.2803118526935577	1.0	1.0	filling-cabinet	'nV_V'	filling-cabinet_5.jp	6.0	1.0	Furniture	Nonliving_Things	263.5	20.0	glimpse	0
264.35	0.85	0.6302487850189209	0.2803118526935577	1.0	1.0	filling-cabinet	'nV_V'	filling-cabinet_5.jp	6.0	1.0	Furniture	Nonliving_Things	264.35	20.0	glimpse	0
265.2	0.85	0.6302487850189209	0.2803118526935577	1.0	1.0	filling-cabinet	'nV_V'	filling-cabinet_5.jp	6.0	1.0	Furniture	Nonliving_Things	265.2	20.0	glimpse	0
266.05	0.85	0.6302487850189209	0.2803118526935577	1.0	1.0	filling-cabinet	'nV_V'	filling-cabinet_5.jp	6.0	1.0	Furniture	Nonliving_Things	266.05	20.0	glimpse	0
266.9	0.85	0.6302487850189209	0.2803118526935577	1.0	1.0	filling-cabinet	'nV_V'	filling-cabinet_5.jp	6.0	1.0	Furniture	Nonliving_Things	266.9	20.0	glimpse	0
267.75	0.85	0.6302487850189209	0.2803118526935577	1.0	1.0	filling-cabinet	'nV_V'	filling-cabinet_5.jp	6.0	1.0	Furniture	Nonliving_Things	267.75	20.0	glimpse	0
268.6	0.85	0.6302487850189209	0.2803118526935577	1.0	1.0	filling-cabinet	'nV_V'	filling-cabinet_5.jp	6.0	1.0	Furniture	Nonliving_Things	268.6	20.0	glimpse	0
269.45	0.85	0.3903068900108337	0.3303249478340149	0.0	2.0	hammer	'V_nV'	hammer_23.jpg	5.0	1.0	Tools	Nonliving_Things	269.45	21.0	unconscious	0
270.3	0.85	0.3903068900108337	0.3303249478340149	0.0	2.0	hammer	'V_nV'	hammer_23.jpg	5.0	1.0	Tools	Nonliving_Things	270.3	21.0	unconscious	0
271.15	0.85	0.3903068900108337	0.3303249478340149	0.0	2.0	hammer	'V_nV'	hammer_23.jpg	5.0	1.0	Tools	Nonliving_Things	271.15	21.0	unconscious	0
272.0	0.85	0.3903068900108337	0.3303249478340149	0.0	2.0	hammer	'V_nV'	hammer_23.jpg	5.0	1.0	Tools	Nonliving_Things	272.0	21.0	unconscious	0
272.85	0.85	0.3903068900108337	0.3303249478340149	0.0	2.0	hammer	'V_nV'	hammer_23.jpg	5.0	1.0	Tools	Nonliving_Things	272.85	21.0	unconscious	0
273.7	0.85	0.3903068900108337	0.3303249478340149	0.0	2.0	hammer	'V_nV'	hammer_23.jpg	5.0	1.0	Tools	Nonliving_Things	273.7	21.0	unconscious	0
274.55	0.85	0.3903068900108337	0.3303249478340149	0.0	2.0	hammer	'V_nV'	hammer_23.jpg	5.0	1.0	Tools	Nonliving_Things	274.55	21.0	unconscious	1
275.4	0.85	0.3903068900108337	0.3303249478340149	0.0	2.0	hammer	'V_nV'	hammer_23.jpg	5.0	1.0	Tools	Nonliving_Things	275.4	21.0	unconscious	1
276.25	0.85	0.3903068900108337	0.3303249478340149	0.0	2.0	hammer	'V_nV'	hammer_23.jpg	5.0	1.0	Tools	Nonliving_Things	276.25	21.0	unconscious	1
277.1	0.85	0.3903068900108337	0.3303249478340149	0.0	2.0	hammer	'V_nV'	hammer_23.jpg	5.0	1.0	Tools	Nonliving_Things	277.1	21.0	unconscious	1
277.95	0.85	0.3903068900108337	0.3303249478340149	0.0	2.0	hammer	'V_nV'	hammer_23.jpg	5.0	1.0	Tools	Nonliving_Things	277.95	21.0	unconscious	0
278.8	0.85	0.3903068900108337	0.3303249478340149	0.0	2.0	hammer	'V_nV'	hammer_23.jpg	5.0	1.0	Tools	Nonliving_Things	278.8	21.0	unconscious	0
279.65	0.85	0.3903068900108337	0.3303249478340149	0.0	2.0	hammer	'V_nV'	hammer_23.jpg	5.0	1.0	Tools	Nonliving_Things	279.65	21.0	unconscious	0
280.5	0.85	0.3903068900108337	0.3303249478340149	0.0	2.0	hammer	'V_nV'	hammer_23.jpg	5.0	1.0	Tools	Nonliving_Things	280.5	21.0	unconscious	0
281.35	0.85	0.3903068900108337	0.3303249478340149	0.0	2.0	hammer	'V_nV'	hammer_23.jpg	5.0	1.0	Tools	Nonliving_Things	281.35	21.0	unconscious	0
282.2	0.85	0.6002933979034424	0.2302946001291275	1.0	2.0	lectern	'V_nV'	lectern_9.jpg	8.0	2.0	Furniture	Nonliving_Things	282.2	22.0	glimpse	0
283.05	0.85	0.6002933979034424	0.2302946001291275	1.0	2.0	lectern	'V_nV'	lectern_9.jpg	8.0	2.0	Furniture	Nonliving_Things	283.05	22.0	glimpse	0
283.9	0.85	0.6002933979034424	0.2302946001291275	1.0	2.0	lectern	'V_nV'	lectern_9.jpg	8.0	2.0	Furniture	Nonliving_Things	283.9	22.0	glimpse	0
284.75	0.85	0.6002933979034424	0.2302946001291275	1.0	2.0	lectern	'V_nV'	lectern_9.jpg	8.0	2.0	Furniture	Nonliving_Things	284.75	22.0	glimpse	0
285.6	0.85	0.6002933979034424	0.2302946001291275	1.0	2.0	lectern	'V_nV'	lectern_9.jpg	8.0	2.0	Furniture	Nonliving_Things	285.6	22.0	glimpse	0
286.45	0.85	0.6002933979034424	0.2302946001291275	1.0	2.0	lectern	'V_nV'	lectern_9.jpg	8.0	2.0	Furniture	Nonliving_Things	286.45	22.0	glimpse	0
287.3	0.85	0.6002933979034424	0.2302946001291275	1.0	2.0	lectern	'V_nV'	lectern_9.jpg	8.0	2.0	Furniture	Nonliving_Things	287.3	22.0	glimpse	0
288.15	0.85	0.6002933979034424	0.2302946001291275	1.0	2.0	lectern	'V_nV'	lectern_9.jpg	8.0	2.0	Furniture	Nonliving_Things	288.15	22.0	glimpse	1
289.0	0.85	0.6002933979034424	0.2302946001291275	1.0	2.0	lectern	'V_nV'	lectern_9.jpg	8.0	2.0	Furniture	Nonliving_Things	289.0	22.0	glimpse	1
289.85	0.85	0.6002933979034424	0.2302946001291275	1.0	2.0	lectern	'V_nV'	lectern_9.jpg	8.0	2.0	Furniture	Nonliving_Things	289.85	22.0	glimpse	1
290.7	0.85	0.6002933979034424	0.2302946001291275	1.0	2.0	lectern	'V_nV'	lectern_9.jpg	8.0	2.0	Furniture	Nonliving_Things	290.7	22.0	glimpse	0
291.55	0.85	0.6002933979034424	0.2302946001291275	1.0	2.0	lectern	'V_nV'	lectern_9.jpg	8.0	2.0	Furniture	Nonliving_Things	291.55	22.0	glimpse	0
292.4	0.85	0.6002933979034424	0.2302946001291275	1.0	2.0	lectern	'V_nV'	lectern_9.jpg	8.0	2.0	Furniture	Nonliving_Things	292.4	22.0	glimpse	0
293.25	0.85	0.6002933979034424	0.2302946001291275	1.0	2.0	lectern	'V_nV'	lectern_9.jpg	8.0	2.0	Furniture	Nonliving_Things	293.25	22.0	glimpse	0
294.1	0.85	0.6002933979034424	0.2302946001291275	1.0	2.0	lectern	'V_nV'	lectern_9.jpg	8.0	2.0	Furniture	Nonliving_Things	294.1	22.0	glimpse	0
294.95	0.85	0.6002933979034424	0.2302946001291275	1.0	2.0	lectern	'V_nV'	lectern_9.jpg	8.0	2.0	Furniture	Nonliving_Things	294.95	22.0	glimpse	0
295.8	0.85	0.7902427911758423	0.9602885842323304	0.0	1.0	granary	'nV_V'	granary_25.jpg	7.0	2.0	Buildings	Nonliving_Things	295.8	23.0	conscious	0
296.65	0.85	0.7902427911758423	0.9602885842323304	0.0	1.0	granary	'nV_V'	granary_25.jpg	7.0	2.0	Buildings	Nonliving_Things	296.65	23.0	conscious	0
297.5	0.85	0.7902427911758423	0.9602885842323304	0.0	1.0	granary	'nV_V'	granary_25.jpg	7.0	2.0	Buildings	Nonliving_Things	297.5	23.0	conscious	0
298.35	0.85	0.7902427911758423	0.9602885842323304	0.0	1.0	granary	'nV_V'	granary_25.jpg	7.0	2.0	Buildings	Nonliving_Things	298.35	23.0	conscious	0
299.2	0.85	0.7902427911758423	0.9602885842323304	0.0	1.0	granary	'nV_V'	granary_25.jpg	7.0	2.0	Buildings	Nonliving_Things	299.2	23.0	conscious	0
300.05	0.85	0.7902427911758423	0.9602885842323304	0.0	1.0	granary	'nV_V'	granary_25.jpg	7.0	2.0	Buildings	Nonliving_Things	300.05	23.0	conscious	0
300.9	0.85	0.7902427911758423	0.9602885842323304	0.0	1.0	granary	'nV_V'	granary_25.jpg	7.0	2.0	Buildings	Nonliving_Things	300.9	23.0	conscious	1
301.75	0.85	0.7902427911758423	0.9602885842323304	0.0	1.0	granary	'nV_V'	granary_25.jpg	7.0	2.0	Buildings	Nonliving_Things	301.75	23.0	conscious	1
302.6	0.85	0.7902427911758423	0.9602885842323304	0.0	1.0	granary	'nV_V'	granary_25.jpg	7.0	2.0	Buildings	Nonliving_Things	302.6	23.0	conscious	1
303.45	0.85	0.7902427911758423	0.9602885842323304	0.0	1.0	granary	'nV_V'	granary_25.jpg	7.0	2.0	Buildings	Nonliving_Things	303.45	23.0	conscious	1
304.3	0.85	0.7902427911758423	0.9602885842323304	0.0	1.0	granary	'nV_V'	granary_25.jpg	7.0	2.0	Buildings	Nonliving_Things	304.3	23.0	conscious	0
305.15	0.85	0.7902427911758423	0.9602885842323304	0.0	1.0	granary	'nV_V'	granary_25.jpg	7.0	2.0	Buildings	Nonliving_Things	305.15	23.0	conscious	0
306.0	0.85	0.7902427911758423	0.9602885842323304	0.0	1.0	granary	'nV_V'	granary_25.jpg	7.0	2.0	Buildings	Nonliving_Things	306.0	23.0	conscious	0
306.85	0.85	0.7902427911758423	0.9602885842323304	0.0	1.0	granary	'nV_V'	granary_25.jpg	7.0	2.0	Buildings	Nonliving_Things	306.85	23.0	conscious	0
307.7	0.85	0.7902427911758423	0.9602885842323304	0.0	1.0	granary	'nV_V'	granary_25.jpg	7.0	2.0	Buildings	Nonliving_Things	307.7	23.0	conscious	0
308.55	0.85	1.470288872718811	n/a	1.0	1.0	couch	'nV_V'	couch_18.jpg	4.0	1.0	Furniture	Nonliving_Things	308.55	24.0	missing data	0
309.4	0.85	1.470288872718811	n/a	1.0	1.0	couch	'nV_V'	couch_18.jpg	4.0	1.0	Furniture	Nonliving_Things	309.4	24.0	missing data	0
310.25	0.85	1.470288872718811	n/a	1.0	1.0	couch	'nV_V'	couch_18.jpg	4.0	1.0	Furniture	Nonliving_Things	310.25	24.0	missing data	0
311.1	0.85	1.470288872718811	n/a	1.0	1.0	couch	'nV_V'	couch_18.jpg	4.0	1.0	Furniture	Nonliving_Things	311.1	24.0	missing data	0
311.95	0.85	1.470288872718811	n/a	1.0	1.0	couch	'nV_V'	couch_18.jpg	4.0	1.0	Furniture	Nonliving_Things	311.95	24.0	missing data	0
312.8	0.85	1.470288872718811	n/a	1.0	1.0	couch	'nV_V'	couch_18.jpg	4.0	1.0	Furniture	Nonliving_Things	312.8	24.0	missing data	0
313.65	0.85	1.470288872718811	n/a	1.0	1.0	couch	'nV_V'	couch_18.jpg	4.0	1.0	Furniture	Nonliving_Things	313.65	24.0	missing data	1
314.5	0.85	1.470288872718811	n/a	1.0	1.0	couch	'nV_V'	couch_18.jpg	4.0	1.0	Furniture	Nonliving_Things	314.5	24.0	missing data	1
315.35	0.85	1.470288872718811	n/a	1.0	1.0	couch	'nV_V'	couch_18.jpg	4.0	1.0	Furniture	Nonliving_Things	315.35	24.0	missing data	1
316.2	0.85	1.470288872718811	n/a	1.0	1.0	couch	'nV_V'	couch_18.jpg	4.0	1.0	Furniture	Nonliving_Things	316.2	24.0	missing data	0
317.05	0.85	1.470288872718811	n/a	1.0	1.0	couch	'nV_V'	couch_18.jpg	4.0	1.0	Furniture	Nonliving_Things	317.05	24.0	missing data	0
317.9	0.85	1.470288872718811	n/a	1.0	1.0	couch	'nV_V'	couch_18.jpg	4.0	1.0	Furniture	Nonliving_Things	317.9	24.0	missing data	0
318.75	0.85	1.470288872718811	n/a	1.0	1.0	couch	'nV_V'	couch_18.jpg	4.0	1.0	Furniture	Nonliving_Things	318.75	24.0	missing data	0
319.6	0.85	1.470288872718811	n/a	1.0	1.0	couch	'nV_V'	couch_18.jpg	4.0	1.0	Furniture	Nonliving_Things	319.6	24.0	missing data	0
320.45	0.85	1.470288872718811	n/a	1.0	1.0	couch	'nV_V'	couch_18.jpg	4.0	1.0	Furniture	Nonliving_Things	320.45	24.0	missing data	0
321.3	0.85	0.840304970741272	0.4203412830829621	1.0	2.0	sparrow	'nV_V'	sparrow_3.jpg	4.0	2.0	Birds	Living_Things	321.3	25.0	glimpse	0
322.15	0.85	0.840304970741272	0.4203412830829621	1.0	2.0	sparrow	'nV_V'	sparrow_3.jpg	4.0	2.0	Birds	Living_Things	322.15	25.0	glimpse	0
323.0	0.85	0.840304970741272	0.4203412830829621	1.0	2.0	sparrow	'nV_V'	sparrow_3.jpg	4.0	2.0	Birds	Living_Things	323.0	25.0	glimpse	0
323.85	0.85	0.840304970741272	0.4203412830829621	1.0	2.0	sparrow	'nV_V'	sparrow_3.jpg	4.0	2.0	Birds	Living_Things	323.85	25.0	glimpse	0
324.7	0.85	0.840304970741272	0.4203412830829621	1.0	2.0	sparrow	'nV_V'	sparrow_3.jpg	4.0	2.0	Birds	Living_Things	324.7	25.0	glimpse	0
325.55	0.85	0.840304970741272	0.4203412830829621	1.0	2.0	sparrow	'nV_V'	sparrow_3.jpg	4.0	2.0	Birds	Living_Things	325.55	25.0	glimpse	0
326.4	0.85	0.840304970741272	0.4203412830829621	1.0	2.0	sparrow	'nV_V'	sparrow_3.jpg	4.0	2.0	Birds	Living_Things	326.4	25.0	glimpse	1
327.25	0.85	0.840304970741272	0.4203412830829621	1.0	2.0	sparrow	'nV_V'	sparrow_3.jpg	4.0	2.0	Birds	Living_Things	327.25	25.0	glimpse	1
328.1	0.85	0.840304970741272	0.4203412830829621	1.0	2.0	sparrow	'nV_V'	sparrow_3.jpg	4.0	2.0	Birds	Living_Things	328.1	25.0	glimpse	1
328.95	0.85	0.840304970741272	0.4203412830829621	1.0	2.0	sparrow	'nV_V'	sparrow_3.jpg	4.0	2.0	Birds	Living_Things	328.95	25.0	glimpse	1
329.8	0.85	0.840304970741272	0.4203412830829621	1.0	2.0	sparrow	'nV_V'	sparrow_3.jpg	4.0	2.0	Birds	Living_Things	329.8	25.0	glimpse	0
330.65	0.85	0.840304970741272	0.4203412830829621	1.0	2.0	sparrow	'nV_V'	sparrow_3.jpg	4.0	2.0	Birds	Living_Things	330.65	25.0	glimpse	0
331.5	0.85	0.840304970741272	0.4203412830829621	1.0	2.0	sparrow	'nV_V'	sparrow_3.jpg	4.0	2.0	Birds	Living_Things	331.5	25.0	glimpse	0
332.35	0.85	0.840304970741272	0.4203412830829621	1.0	2.0	sparrow	'nV_V'	sparrow_3.jpg	4.0	2.0	Birds	Living_Things	332.35	25.0	glimpse	0
333.2	0.85	0.6403325200080872	0.3402929902076721	1.0	1.0	sperm-whale	'V_nV'	sperm-whale_5.jpg	3.0	1.0	Marine_creatures	Living_Things	333.2	26.0	glimpse	0
334.05	0.85	0.6403325200080872	0.3402929902076721	1.0	1.0	sperm-whale	'V_nV'	sperm-whale_5.jpg	3.0	1.0	Marine_creatures	Living_Things	334.05	26.0	glimpse	0
334.9	0.85	0.6403325200080872	0.3402929902076721	1.0	1.0	sperm-whale	'V_nV'	sperm-whale_5.jpg	3.0	1.0	Marine_creatures	Living_Things	334.9	26.0	glimpse	0
335.75	0.85	0.6403325200080872	0.3402929902076721	1.0	1.0	sperm-whale	'V_nV'	sperm-whale_5.jpg	3.0	1.0	Marine_creatures	Living_Things	335.75	26.0	glimpse	0
336.6	0.85	0.6403325200080872	0.3402929902076721	1.0	1.0	sperm-whale	'V_nV'	sperm-whale_5.jpg	3.0	1.0	Marine_creatures	Living_Things	336.6	26.0	glimpse	0
337.45	0.85	0.6403325200080872	0.3402929902076721	1.0	1.0	sperm-whale	'V_nV'	sperm-whale_5.jpg	3.0	1.0	Marine_creatures	Living_Things	337.45	26.0	glimpse	0
338.3	0.85	0.6403325200080872	0.3402929902076721	1.0	1.0	sperm-whale	'V_nV'	sperm-whale_5.jpg	3.0	1.0	Marine_creatures	Living_Things	338.3	26.0	glimpse	0
339.15	0.85	0.6403325200080872	0.3402929902076721	1.0	1.0	sperm-whale	'V_nV'	sperm-whale_5.jpg	3.0	1.0	Marine_creatures	Living_Things	339.15	26.0	glimpse	1
340.0	0.85	0.6403325200080872	0.3402929902076721	1.0	1.0	sperm-whale	'V_nV'	sperm-whale_5.jpg	3.0	1.0	Marine_creatures	Living_Things	340.0	26.0	glimpse	1
340.85	0.85	0.6403325200080872	0.3402929902076721	1.0	1.0	sperm-whale	'V_nV'	sperm-whale_5.jpg	3.0	1.0	Marine_creatures	Living_Things	340.85	26.0	glimpse	1
341.7	0.85	0.6403325200080872	0.3402929902076721	1.0	1.0	sperm-whale	'V_nV'	sperm-whale_5.jpg	3.0	1.0	Marine_creatures	Living_Things	341.7	26.0	glimpse	0
342.55	0.85	0.6403325200080872	0.3402929902076721	1.0	1.0	sperm-whale	'V_nV'	sperm-whale_5.jpg	3.0	1.0	Marine_creatures	Living_Things	342.55	26.0	glimpse	0
343.4	0.85	0.6403325200080872	0.3402929902076721	1.0	1.0	sperm-whale	'V_nV'	sperm-whale_5.jpg	3.0	1.0	Marine_creatures	Living_Things	343.4	26.0	glimpse	0
344.25	0.85	0.6403325200080872	0.3402929902076721	1.0	1.0	sperm-whale	'V_nV'	sperm-whale_5.jpg	3.0	1.0	Marine_creatures	Living_Things	344.25	26.0	glimpse	0
345.1	0.85	0.6403325200080872	0.3402929902076721	1.0	1.0	sperm-whale	'V_nV'	sperm-whale_5.jpg	3.0	1.0	Marine_creatures	Living_Things	345.1	26.0	glimpse	0
345.95	0.85	0.6403325200080872	0.3402929902076721	1.0	1.0	sperm-whale	'V_nV'	sperm-whale_5.jpg	3.0	1.0	Marine_creatures	Living_Things	345.95	26.0	glimpse	0
346.8	0.85	0.6403325200080872	0.3402929902076721	1.0	1.0	sperm-whale	'V_nV'	sperm-whale_5.jpg	3.0	1.0	Marine_creatures	Living_Things	346.8	26.0	glimpse	0
347.65	0.85	0.6403325200080872	0.3402929902076721	1.0	1.0	sperm-whale	'V_nV'	sperm-whale_5.jpg	3.0	1.0	Marine_creatures	Living_Things	347.65	26.0	glimpse	0
348.5	0.85	0.3903597593307495	0.2903357744216919	1.0	2.0	cow	'nV_V'	cow_16.jpg	2.0	2.0	Animals	Living_Things	348.5	27.0	unconscious	0
349.35	0.85	0.3903597593307495	0.2903357744216919	1.0	2.0	cow	'nV_V'	cow_16.jpg	2.0	2.0	Animals	Living_Things	349.35	27.0	unconscious	0
350.2	0.85	0.3903597593307495	0.2903357744216919	1.0	2.0	cow	'nV_V'	cow_16.jpg	2.0	2.0	Animals	Living_Things	350.2	27.0	unconscious	0
351.05	0.85	0.3903597593307495	0.2903357744216919	1.0	2.0	cow	'nV_V'	cow_16.jpg	2.0	2.0	Animals	Living_Things	351.05	27.0	unconscious	0
351.9	0.85	0.3903597593307495	0.2903357744216919	1.0	2.0	cow	'nV_V'	cow_16.jpg	2.0	2.0	Animals	Living_Things	351.9	27.0	unconscious	0
352.75	0.85	0.3903597593307495	0.2903357744216919	1.0	2.0	cow	'nV_V'	cow_16.jpg	2.0	2.0	Animals	Living_Things	352.75	27.0	unconscious	0
353.6	0.85	0.3903597593307495	0.2903357744216919	1.0	2.0	cow	'nV_V'	cow_16.jpg	2.0	2.0	Animals	Living_Things	353.6	27.0	unconscious	0
354.45	0.85	0.3903597593307495	0.2903357744216919	1.0	2.0	cow	'nV_V'	cow_16.jpg	2.0	2.0	Animals	Living_Things	354.45	27.0	unconscious	1
355.3	0.85	0.3903597593307495	0.2903357744216919	1.0	2.0	cow	'nV_V'	cow_16.jpg	2.0	2.0	Animals	Living_Things	355.3	27.0	unconscious	1
356.15	0.85	0.3903597593307495	0.2903357744216919	1.0	2.0	cow	'nV_V'	cow_16.jpg	2.0	2.0	Animals	Living_Things	356.15	27.0	unconscious	1
357.0	0.85	0.3903597593307495	0.2903357744216919	1.0	2.0	cow	'nV_V'	cow_16.jpg	2.0	2.0	Animals	Living_Things	357.0	27.0	unconscious	0
357.85	0.85	0.3903597593307495	0.2903357744216919	1.0	2.0	cow	'nV_V'	cow_16.jpg	2.0	2.0	Animals	Living_Things	357.85	27.0	unconscious	0
358.7	0.85	0.3903597593307495	0.2903357744216919	1.0	2.0	cow	'nV_V'	cow_16.jpg	2.0	2.0	Animals	Living_Things	358.7	27.0	unconscious	0
359.55	0.85	0.3903597593307495	0.2903357744216919	1.0	2.0	cow	'nV_V'	cow_16.jpg	2.0	2.0	Animals	Living_Things	359.55	27.0	unconscious	0
360.4	0.85	0.3903597593307495	0.2903357744216919	1.0	2.0	cow	'nV_V'	cow_16.jpg	2.0	2.0	Animals	Living_Things	360.4	27.0	unconscious	0
361.25	0.85	0.3903597593307495	0.2903357744216919	1.0	2.0	cow	'nV_V'	cow_16.jpg	2.0	2.0	Animals	Living_Things	361.25	27.0	unconscious	0
362.1	0.85	0.3903597593307495	0.2903357744216919	1.0	2.0	cow	'nV_V'	cow_16.jpg	2.0	2.0	Animals	Living_Things	362.1	27.0	unconscious	0
362.95	0.85	1.1103312969207764	0.2802866399288177	1.0	1.0	factory	'nV_V'	factory_8.jpg	4.0	1.0	Buildings	Nonliving_Things	362.95	28.0	unconscious	0
363.8	0.85	1.1103312969207764	0.2802866399288177	1.0	1.0	factory	'nV_V'	factory_8.jpg	4.0	1.0	Buildings	Nonliving_Things	363.8	28.0	unconscious	0
364.65	0.85	1.1103312969207764	0.2802866399288177	1.0	1.0	factory	'nV_V'	factory_8.jpg	4.0	1.0	Buildings	Nonliving_Things	364.65	28.0	unconscious	0
365.5	0.85	1.1103312969207764	0.2802866399288177	1.0	1.0	factory	'nV_V'	factory_8.jpg	4.0	1.0	Buildings	Nonliving_Things	365.5	28.0	unconscious	0
366.35	0.85	1.1103312969207764	0.2802866399288177	1.0	1.0	factory	'nV_V'	factory_8.jpg	4.0	1.0	Buildings	Nonliving_Things	366.35	28.0	unconscious	0
367.2	0.85	1.1103312969207764	0.2802866399288177	1.0	1.0	factory	'nV_V'	factory_8.jpg	4.0	1.0	Buildings	Nonliving_Things	367.2	28.0	unconscious	0
368.05	0.85	1.1103312969207764	0.2802866399288177	1.0	1.0	factory	'nV_V'	factory_8.jpg	4.0	1.0	Buildings	Nonliving_Things	368.05	28.0	unconscious	1
368.9	0.85	1.1103312969207764	0.2802866399288177	1.0	1.0	factory	'nV_V'	factory_8.jpg	4.0	1.0	Buildings	Nonliving_Things	368.9	28.0	unconscious	1
369.75	0.85	1.1103312969207764	0.2802866399288177	1.0	1.0	factory	'nV_V'	factory_8.jpg	4.0	1.0	Buildings	Nonliving_Things	369.75	28.0	unconscious	1
370.6	0.85	1.1103312969207764	0.2802866399288177	1.0	1.0	factory	'nV_V'	factory_8.jpg	4.0	1.0	Buildings	Nonliving_Things	370.6	28.0	unconscious	1
371.45	0.85	1.1103312969207764	0.2802866399288177	1.0	1.0	factory	'nV_V'	factory_8.jpg	4.0	1.0	Buildings	Nonliving_Things	371.45	28.0	unconscious	0
372.3	0.85	1.1103312969207764	0.2802866399288177	1.0	1.0	factory	'nV_V'	factory_8.jpg	4.0	1.0	Buildings	Nonliving_Things	372.3	28.0	unconscious	0
373.15	0.85	1.1103312969207764	0.2802866399288177	1.0	1.0	factory	'nV_V'	factory_8.jpg	4.0	1.0	Buildings	Nonliving_Things	373.15	28.0	unconscious	0
374.0	0.85	1.1103312969207764	0.2802866399288177	1.0	1.0	factory	'nV_V'	factory_8.jpg	4.0	1.0	Buildings	Nonliving_Things	374.0	28.0	unconscious	0
374.85	0.85	1.1103312969207764	0.2802866399288177	1.0	1.0	factory	'nV_V'	factory_8.jpg	4.0	1.0	Buildings	Nonliving_Things	374.85	28.0	unconscious	0
375.7	0.85	1.1103312969207764	0.2802866399288177	1.0	1.0	factory	'nV_V'	factory_8.jpg	4.0	1.0	Buildings	Nonliving_Things	375.7	28.0	unconscious	0
376.55	0.85	1.1103312969207764	0.2802866399288177	1.0	1.0	factory	'nV_V'	factory_8.jpg	4.0	1.0	Buildings	Nonliving_Things	376.55	28.0	unconscious	0
377.4	0.85	0.9202885627746582	0.3602998852729797	1.0	1.0	cat	'V_nV'	cat_4.jpg	6.0	1.0	Animals	Living_Things	377.4	29.0	glimpse	0
378.25	0.85	0.9202885627746582	0.3602998852729797	1.0	1.0	cat	'V_nV'	cat_4.jpg	6.0	1.0	Animals	Living_Things	378.25	29.0	glimpse	0
379.1	0.85	0.9202885627746582	0.3602998852729797	1.0	1.0	cat	'V_nV'	cat_4.jpg	6.0	1.0	Animals	Living_Things	379.1	29.0	glimpse	0
379.95	0.85	0.9202885627746582	0.3602998852729797	1.0	1.0	cat	'V_nV'	cat_4.jpg	6.0	1.0	Animals	Living_Things	379.95	29.0	glimpse	0
380.8	0.85	0.9202885627746582	0.3602998852729797	1.0	1.0	cat	'V_nV'	cat_4.jpg	6.0	1.0	Animals	Living_Things	380.8	29.0	glimpse	0
381.65	0.85	0.9202885627746582	0.3602998852729797	1.0	1.0	cat	'V_nV'	cat_4.jpg	6.0	1.0	Animals	Living_Things	381.65	29.0	glimpse	0
382.5	0.85	0.9202885627746582	0.3602998852729797	1.0	1.0	cat	'V_nV'	cat_4.jpg	6.0	1.0	Animals	Living_Things	382.5	29.0	glimpse	1
383.35	0.85	0.9202885627746582	0.3602998852729797	1.0	1.0	cat	'V_nV'	cat_4.jpg	6.0	1.0	Animals	Living_Things	383.35	29.0	glimpse	1
384.2	0.85	0.9202885627746582	0.3602998852729797	1.0	1.0	cat	'V_nV'	cat_4.jpg	6.0	1.0	Animals	Living_Things	384.2	29.0	glimpse	1
385.05	0.85	0.9202885627746582	0.3602998852729797	1.0	1.0	cat	'V_nV'	cat_4.jpg	6.0	1.0	Animals	Living_Things	385.05	29.0	glimpse	1
385.9	0.85	0.9202885627746582	0.3602998852729797	1.0	1.0	cat	'V_nV'	cat_4.jpg	6.0	1.0	Animals	Living_Things	385.9	29.0	glimpse	0
386.75	0.85	0.9202885627746582	0.3602998852729797	1.0	1.0	cat	'V_nV'	cat_4.jpg	6.0	1.0	Animals	Living_Things	386.75	29.0	glimpse	0
387.6	0.85	0.9202885627746582	0.3602998852729797	1.0	1.0	cat	'V_nV'	cat_4.jpg	6.0	1.0	Animals	Living_Things	387.6	29.0	glimpse	0
388.45	0.85	0.9202885627746582	0.3602998852729797	1.0	1.0	cat	'V_nV'	cat_4.jpg	6.0	1.0	Animals	Living_Things	388.45	29.0	glimpse	0
389.3	0.85	0.7603023052215576	0.2403189092874527	1.0	1.0	toucan	'V_nV'	toucan_15.jpg	5.0	1.0	Birds	Living_Things	389.3	30.0	glimpse	0
390.15	0.85	0.7603023052215576	0.2403189092874527	1.0	1.0	toucan	'V_nV'	toucan_15.jpg	5.0	1.0	Birds	Living_Things	390.15	30.0	glimpse	0
391.0	0.85	0.7603023052215576	0.2403189092874527	1.0	1.0	toucan	'V_nV'	toucan_15.jpg	5.0	1.0	Birds	Living_Things	391.0	30.0	glimpse	0
391.85	0.85	0.7603023052215576	0.2403189092874527	1.0	1.0	toucan	'V_nV'	toucan_15.jpg	5.0	1.0	Birds	Living_Things	391.85	30.0	glimpse	0
392.7	0.85	0.7603023052215576	0.2403189092874527	1.0	1.0	toucan	'V_nV'	toucan_15.jpg	5.0	1.0	Birds	Living_Things	392.7	30.0	glimpse	0
393.55	0.85	0.7603023052215576	0.2403189092874527	1.0	1.0	toucan	'V_nV'	toucan_15.jpg	5.0	1.0	Birds	Living_Things	393.55	30.0	glimpse	0
394.4	0.85	0.7603023052215576	0.2403189092874527	1.0	1.0	toucan	'V_nV'	toucan_15.jpg	5.0	1.0	Birds	Living_Things	394.4	30.0	glimpse	0
395.25	0.85	0.7603023052215576	0.2403189092874527	1.0	1.0	toucan	'V_nV'	toucan_15.jpg	5.0	1.0	Birds	Living_Things	395.25	30.0	glimpse	1
396.1	0.85	0.7603023052215576	0.2403189092874527	1.0	1.0	toucan	'V_nV'	toucan_15.jpg	5.0	1.0	Birds	Living_Things	396.1	30.0	glimpse	1
396.95	0.85	0.7603023052215576	0.2403189092874527	1.0	1.0	toucan	'V_nV'	toucan_15.jpg	5.0	1.0	Birds	Living_Things	396.95	30.0	glimpse	1
397.8	0.85	0.7603023052215576	0.2403189092874527	1.0	1.0	toucan	'V_nV'	toucan_15.jpg	5.0	1.0	Birds	Living_Things	397.8	30.0	glimpse	0
398.65	0.85	0.7603023052215576	0.2403189092874527	1.0	1.0	toucan	'V_nV'	toucan_15.jpg	5.0	1.0	Birds	Living_Things	398.65	30.0	glimpse	0
399.5	0.85	0.7603023052215576	0.2403189092874527	1.0	1.0	toucan	'V_nV'	toucan_15.jpg	5.0	1.0	Birds	Living_Things	399.5	30.0	glimpse	0
400.35	0.85	0.7603023052215576	0.2403189092874527	1.0	1.0	toucan	'V_nV'	toucan_15.jpg	5.0	1.0	Birds	Living_Things	400.35	30.0	glimpse	0
401.2	0.85	0.7603023052215576	0.2403189092874527	1.0	1.0	toucan	'V_nV'	toucan_15.jpg	5.0	1.0	Birds	Living_Things	401.2	30.0	glimpse	0
402.05	0.85	1.1902941465377808	0.3500969707965851	1.0	1.0	dragonfly	'V_nV'	dragonfly_17.jpg	4.0	1.0	Insects	Living_Things	402.05	31.0	unconscious	0
402.9	0.85	1.1902941465377808	0.3500969707965851	1.0	1.0	dragonfly	'V_nV'	dragonfly_17.jpg	4.0	1.0	Insects	Living_Things	402.9	31.0	unconscious	0
403.75	0.85	1.1902941465377808	0.3500969707965851	1.0	1.0	dragonfly	'V_nV'	dragonfly_17.jpg	4.0	1.0	Insects	Living_Things	403.75	31.0	unconscious	0
404.6	0.85	1.1902941465377808	0.3500969707965851	1.0	1.0	dragonfly	'V_nV'	dragonfly_17.jpg	4.0	1.0	Insects	Living_Things	404.6	31.0	unconscious	0
405.45	0.85	1.1902941465377808	0.3500969707965851	1.0	1.0	dragonfly	'V_nV'	dragonfly_17.jpg	4.0	1.0	Insects	Living_Things	405.45	31.0	unconscious	0
406.3	0.85	1.1902941465377808	0.3500969707965851	1.0	1.0	dragonfly	'V_nV'	dragonfly_17.jpg	4.0	1.0	Insects	Living_Things	406.3	31.0	unconscious	0
407.15	0.85	1.1902941465377808	0.3500969707965851	1.0	1.0	dragonfly	'V_nV'	dragonfly_17.jpg	4.0	1.0	Insects	Living_Things	407.15	31.0	unconscious	1
408.0	0.85	1.1902941465377808	0.3500969707965851	1.0	1.0	dragonfly	'V_nV'	dragonfly_17.jpg	4.0	1.0	Insects	Living_Things	408.0	31.0	unconscious	1
408.85	0.85	1.1902941465377808	0.3500969707965851	1.0	1.0	dragonfly	'V_nV'	dragonfly_17.jpg	4.0	1.0	Insects	Living_Things	408.85	31.0	unconscious	1
409.7	0.85	1.1902941465377808	0.3500969707965851	1.0	1.0	dragonfly	'V_nV'	dragonfly_17.jpg	4.0	1.0	Insects	Living_Things	409.7	31.0	unconscious	1
410.55	0.85	1.1902941465377808	0.3500969707965851	1.0	1.0	dragonfly	'V_nV'	dragonfly_17.jpg	4.0	1.0	Insects	Living_Things	410.55	31.0	unconscious	0
411.4	0.85	1.1902941465377808	0.3500969707965851	1.0	1.0	dragonfly	'V_nV'	dragonfly_17.jpg	4.0	1.0	Insects	Living_Things	411.4	31.0	unconscious	0
412.25	0.85	1.1902941465377808	0.3500969707965851	1.0	1.0	dragonfly	'V_nV'	dragonfly_17.jpg	4.0	1.0	Insects	Living_Things	412.25	31.0	unconscious	0
413.1	0.85	1.1902941465377808	0.3500969707965851	1.0	1.0	dragonfly	'V_nV'	dragonfly_17.jpg	4.0	1.0	Insects	Living_Things	413.1	31.0	unconscious	0
413.95	0.85	1.1902941465377808	0.3500969707965851	1.0	1.0	dragonfly	'V_nV'	dragonfly_17.jpg	4.0	1.0	Insects	Living_Things	413.95	31.0	unconscious	0
414.8	0.85	1.0403169393539429	0.200091689825058	1.0	1.0	tiger	'V_nV'	tiger_16.jpg	6.0	1.0	Animals	Living_Things	414.8	32.0	unconscious	0
415.65	0.85	1.0403169393539429	0.200091689825058	1.0	1.0	tiger	'V_nV'	tiger_16.jpg	6.0	1.0	Animals	Living_Things	415.65	32.0	unconscious	0
416.5	0.85	1.0403169393539429	0.200091689825058	1.0	1.0	tiger	'V_nV'	tiger_16.jpg	6.0	1.0	Animals	Living_Things	416.5	32.0	unconscious	0
417.35	0.85	1.0403169393539429	0.200091689825058	1.0	1.0	tiger	'V_nV'	tiger_16.jpg	6.0	1.0	Animals	Living_Things	417.35	32.0	unconscious	0
418.2	0.85	1.0403169393539429	0.200091689825058	1.0	1.0	tiger	'V_nV'	tiger_16.jpg	6.0	1.0	Animals	Living_Things	418.2	32.0	unconscious	0
419.05	0.85	1.0403169393539429	0.200091689825058	1.0	1.0	tiger	'V_nV'	tiger_16.jpg	6.0	1.0	Animals	Living_Things	419.05	32.0	unconscious	0
419.9	0.85	1.0403169393539429	0.200091689825058	1.0	1.0	tiger	'V_nV'	tiger_16.jpg	6.0	1.0	Animals	Living_Things	419.9	32.0	unconscious	1
420.75	0.85	1.0403169393539429	0.200091689825058	1.0	1.0	tiger	'V_nV'	tiger_16.jpg	6.0	1.0	Animals	Living_Things	420.75	32.0	unconscious	1
421.6	0.85	1.0403169393539429	0.200091689825058	1.0	1.0	tiger	'V_nV'	tiger_16.jpg	6.0	1.0	Animals	Living_Things	421.6	32.0	unconscious	1
422.45	0.85	1.0403169393539429	0.200091689825058	1.0	1.0	tiger	'V_nV'	tiger_16.jpg	6.0	1.0	Animals	Living_Things	422.45	32.0	unconscious	1
423.3	0.85	1.0403169393539429	0.200091689825058	1.0	1.0	tiger	'V_nV'	tiger_16.jpg	6.0	1.0	Animals	Living_Things	423.3	32.0	unconscious	0
424.15	0.85	1.0403169393539429	0.200091689825058	1.0	1.0	tiger	'V_nV'	tiger_16.jpg	6.0	1.0	Animals	Living_Things	424.15	32.0	unconscious	0
425.0	0.85	1.0403169393539429	0.200091689825058	1.0	1.0	tiger	'V_nV'	tiger_16.jpg	6.0	1.0	Animals	Living_Things	425.0	32.0	unconscious	0
425.85	0.85	1.0403169393539429	0.200091689825058	1.0	1.0	tiger	'V_nV'	tiger_16.jpg	6.0	1.0	Animals	Living_Things	425.85	32.0	unconscious	0
426.7	0.85	1.0403169393539429	0.200091689825058	1.0	1.0	tiger	'V_nV'	tiger_16.jpg	6.0	1.0	Animals	Living_Things	426.7	32.0	unconscious	0
427.55	0.85	1.0403169393539429	0.200091689825058	1.0	1.0	tiger	'V_nV'	tiger_16.jpg	6.0	1.0	Animals	Living_Things	427.55	32.0	unconscious	0
428.4	0.85	1.0403169393539429	0.200091689825058	1.0	1.0	tiger	'V_nV'	tiger_16.jpg	6.0	1.0	Animals	Living_Things	428.4	32.0	unconscious	0
429.25	0.85	1.0403169393539429	0.200091689825058	1.0	1.0	tiger	'V_nV'	tiger_16.jpg	6.0	1.0	Animals	Living_Things	429.25	32.0	unconscious	0
430.1	0.85	1.0403169393539429	0.200091689825058	1.0	1.0	tiger	'V_nV'	tiger_16.jpg	6.0	1.0	Animals	Living_Things	430.1	32.0	unconscious	0
430.95	0.85	1.0403169393539429	0.200091689825058	1.0	1.0	tiger	'V_nV'	tiger_16.jpg	6.0	1.0	Animals	Living_Things	430.95	32.0	unconscious	0
