onset	duration	RT_response	RT_visibility	correct	correctAns	labels	options	paths	probe_frame	response	subcategory	targets	time_coor	trials	visibility	volume_interest
0.0	0.85	0.0	0.0	0.0	0.0	n/a	n/a	n/a	0.0	0.0	n/a	n/a	0.0	0.0	n/a	0
0.85	0.85	0.0	0.0	0.0	0.0	n/a	n/a	n/a	0.0	0.0	n/a	n/a	0.85	0.0	n/a	0
1.7	0.85	0.680158257484436	0.3200771808624268	1.0	2.0	bus	'V_nV'	bus_14.jpg	4.0	2.0	Vehicles	Nonliving_Things	1.7	1.0	conscious	0
2.55	0.85	0.680158257484436	0.3200771808624268	1.0	2.0	bus	'V_nV'	bus_14.jpg	4.0	2.0	Vehicles	Nonliving_Things	2.55	1.0	conscious	0
3.4	0.85	0.680158257484436	0.3200771808624268	1.0	2.0	bus	'V_nV'	bus_14.jpg	4.0	2.0	Vehicles	Nonliving_Things	3.4	1.0	conscious	0
4.25	0.85	0.680158257484436	0.3200771808624268	1.0	2.0	bus	'V_nV'	bus_14.jpg	4.0	2.0	Vehicles	Nonliving_Things	4.25	1.0	conscious	0
5.1	0.85	0.680158257484436	0.3200771808624268	1.0	2.0	bus	'V_nV'	bus_14.jpg	4.0	2.0	Vehicles	Nonliving_Things	5.1	1.0	conscious	0
5.95	0.85	0.680158257484436	0.3200771808624268	1.0	2.0	bus	'V_nV'	bus_14.jpg	4.0	2.0	Vehicles	Nonliving_Things	5.95	1.0	conscious	0
6.8	0.85	0.680158257484436	0.3200771808624268	1.0	2.0	bus	'V_nV'	bus_14.jpg	4.0	2.0	Vehicles	Nonliving_Things	6.8	1.0	conscious	1
7.649999999999999	0.85	0.680158257484436	0.3200771808624268	1.0	2.0	bus	'V_nV'	bus_14.jpg	4.0	2.0	Vehicles	Nonliving_Things	7.649999999999999	1.0	conscious	1
8.5	0.85	0.680158257484436	0.3200771808624268	1.0	2.0	bus	'V_nV'	bus_14.jpg	4.0	2.0	Vehicles	Nonliving_Things	8.5	1.0	conscious	1
9.35	0.85	0.680158257484436	0.3200771808624268	1.0	2.0	bus	'V_nV'	bus_14.jpg	4.0	2.0	Vehicles	Nonliving_Things	9.35	1.0	conscious	1
10.2	0.85	0.680158257484436	0.3200771808624268	1.0	2.0	bus	'V_nV'	bus_14.jpg	4.0	2.0	Vehicles	Nonliving_Things	10.2	1.0	conscious	0
11.05	0.85	0.680158257484436	0.3200771808624268	1.0	2.0	bus	'V_nV'	bus_14.jpg	4.0	2.0	Vehicles	Nonliving_Things	11.05	1.0	conscious	0
11.9	0.85	0.680158257484436	0.3200771808624268	1.0	2.0	bus	'V_nV'	bus_14.jpg	4.0	2.0	Vehicles	Nonliving_Things	11.9	1.0	conscious	0
12.75	0.85	0.680158257484436	0.3200771808624268	1.0	2.0	bus	'V_nV'	bus_14.jpg	4.0	2.0	Vehicles	Nonliving_Things	12.75	1.0	conscious	0
13.6	0.85	0.680158257484436	0.3200771808624268	1.0	2.0	bus	'V_nV'	bus_14.jpg	4.0	2.0	Vehicles	Nonliving_Things	13.6	1.0	conscious	0
14.45	0.85	1.3502941131591797	n/a	0.0	2.0	cathedral	'V_nV'	cathedral_22.jpg	2.0	1.0	Buildings	Nonliving_Things	14.45	2.0	missing data	0
15.3	0.85	1.3502941131591797	n/a	0.0	2.0	cathedral	'V_nV'	cathedral_22.jpg	2.0	1.0	Buildings	Nonliving_Things	15.3	2.0	missing data	0
16.15	0.85	1.3502941131591797	n/a	0.0	2.0	cathedral	'V_nV'	cathedral_22.jpg	2.0	1.0	Buildings	Nonliving_Things	16.15	2.0	missing data	0
17.0	0.85	1.3502941131591797	n/a	0.0	2.0	cathedral	'V_nV'	cathedral_22.jpg	2.0	1.0	Buildings	Nonliving_Things	17.0	2.0	missing data	0
17.849999999999998	0.85	1.3502941131591797	n/a	0.0	2.0	cathedral	'V_nV'	cathedral_22.jpg	2.0	1.0	Buildings	Nonliving_Things	17.849999999999998	2.0	missing data	0
18.7	0.85	1.3502941131591797	n/a	0.0	2.0	cathedral	'V_nV'	cathedral_22.jpg	2.0	1.0	Buildings	Nonliving_Things	18.7	2.0	missing data	0
19.55	0.85	1.3502941131591797	n/a	0.0	2.0	cathedral	'V_nV'	cathedral_22.jpg	2.0	1.0	Buildings	Nonliving_Things	19.55	2.0	missing data	0
20.4	0.85	1.3502941131591797	n/a	0.0	2.0	cathedral	'V_nV'	cathedral_22.jpg	2.0	1.0	Buildings	Nonliving_Things	20.4	2.0	missing data	1
21.25	0.85	1.3502941131591797	n/a	0.0	2.0	cathedral	'V_nV'	cathedral_22.jpg	2.0	1.0	Buildings	Nonliving_Things	21.25	2.0	missing data	1
22.1	0.85	1.3502941131591797	n/a	0.0	2.0	cathedral	'V_nV'	cathedral_22.jpg	2.0	1.0	Buildings	Nonliving_Things	22.1	2.0	missing data	1
22.95	0.85	1.3502941131591797	n/a	0.0	2.0	cathedral	'V_nV'	cathedral_22.jpg	2.0	1.0	Buildings	Nonliving_Things	22.95	2.0	missing data	0
23.8	0.85	1.3502941131591797	n/a	0.0	2.0	cathedral	'V_nV'	cathedral_22.jpg	2.0	1.0	Buildings	Nonliving_Things	23.8	2.0	missing data	0
24.65	0.85	1.3502941131591797	n/a	0.0	2.0	cathedral	'V_nV'	cathedral_22.jpg	2.0	1.0	Buildings	Nonliving_Things	24.65	2.0	missing data	0
25.5	0.85	1.3502941131591797	n/a	0.0	2.0	cathedral	'V_nV'	cathedral_22.jpg	2.0	1.0	Buildings	Nonliving_Things	25.5	2.0	missing data	0
26.35	0.85	1.3502941131591797	n/a	0.0	2.0	cathedral	'V_nV'	cathedral_22.jpg	2.0	1.0	Buildings	Nonliving_Things	26.35	2.0	missing data	0
27.2	0.85	0.4703020751476288	0.020096119493246	0.0	1.0	plane	'nV_V'	plane_24.jpg	2.0	2.0	Vehicles	Nonliving_Things	27.2	3.0	unconscious	0
28.05	0.85	0.4703020751476288	0.020096119493246	0.0	1.0	plane	'nV_V'	plane_24.jpg	2.0	2.0	Vehicles	Nonliving_Things	28.05	3.0	unconscious	0
28.9	0.85	0.4703020751476288	0.020096119493246	0.0	1.0	plane	'nV_V'	plane_24.jpg	2.0	2.0	Vehicles	Nonliving_Things	28.9	3.0	unconscious	0
29.75	0.85	0.4703020751476288	0.020096119493246	0.0	1.0	plane	'nV_V'	plane_24.jpg	2.0	2.0	Vehicles	Nonliving_Things	29.75	3.0	unconscious	0
30.6	0.85	0.4703020751476288	0.020096119493246	0.0	1.0	plane	'nV_V'	plane_24.jpg	2.0	2.0	Vehicles	Nonliving_Things	30.6	3.0	unconscious	0
31.45	0.85	0.4703020751476288	0.020096119493246	0.0	1.0	plane	'nV_V'	plane_24.jpg	2.0	2.0	Vehicles	Nonliving_Things	31.45	3.0	unconscious	0
32.3	0.85	0.4703020751476288	0.020096119493246	0.0	1.0	plane	'nV_V'	plane_24.jpg	2.0	2.0	Vehicles	Nonliving_Things	32.3	3.0	unconscious	0
33.15	0.85	0.4703020751476288	0.020096119493246	0.0	1.0	plane	'nV_V'	plane_24.jpg	2.0	2.0	Vehicles	Nonliving_Things	33.15	3.0	unconscious	1
34.0	0.85	0.4703020751476288	0.020096119493246	0.0	1.0	plane	'nV_V'	plane_24.jpg	2.0	2.0	Vehicles	Nonliving_Things	34.0	3.0	unconscious	1
34.85	0.85	0.4703020751476288	0.020096119493246	0.0	1.0	plane	'nV_V'	plane_24.jpg	2.0	2.0	Vehicles	Nonliving_Things	34.85	3.0	unconscious	1
35.7	0.85	0.4703020751476288	0.020096119493246	0.0	1.0	plane	'nV_V'	plane_24.jpg	2.0	2.0	Vehicles	Nonliving_Things	35.7	3.0	unconscious	0
36.55	0.85	0.4703020751476288	0.020096119493246	0.0	1.0	plane	'nV_V'	plane_24.jpg	2.0	2.0	Vehicles	Nonliving_Things	36.55	3.0	unconscious	0
37.4	0.85	0.4703020751476288	0.020096119493246	0.0	1.0	plane	'nV_V'	plane_24.jpg	2.0	2.0	Vehicles	Nonliving_Things	37.4	3.0	unconscious	0
38.25	0.85	0.4703020751476288	0.020096119493246	0.0	1.0	plane	'nV_V'	plane_24.jpg	2.0	2.0	Vehicles	Nonliving_Things	38.25	3.0	unconscious	0
39.1	0.85	1.2803542613983154	n/a	1.0	1.0	piano	'nV_V'	piano__7.jpg	4.0	1.0	Musical_Inst	Nonliving_Things	39.1	4.0	missing data	0
39.95	0.85	1.2803542613983154	n/a	1.0	1.0	piano	'nV_V'	piano__7.jpg	4.0	1.0	Musical_Inst	Nonliving_Things	39.95	4.0	missing data	0
40.8	0.85	1.2803542613983154	n/a	1.0	1.0	piano	'nV_V'	piano__7.jpg	4.0	1.0	Musical_Inst	Nonliving_Things	40.8	4.0	missing data	0
41.65	0.85	1.2803542613983154	n/a	1.0	1.0	piano	'nV_V'	piano__7.jpg	4.0	1.0	Musical_Inst	Nonliving_Things	41.65	4.0	missing data	0
42.5	0.85	1.2803542613983154	n/a	1.0	1.0	piano	'nV_V'	piano__7.jpg	4.0	1.0	Musical_Inst	Nonliving_Things	42.5	4.0	missing data	0
43.35	0.85	1.2803542613983154	n/a	1.0	1.0	piano	'nV_V'	piano__7.jpg	4.0	1.0	Musical_Inst	Nonliving_Things	43.35	4.0	missing data	0
44.2	0.85	1.2803542613983154	n/a	1.0	1.0	piano	'nV_V'	piano__7.jpg	4.0	1.0	Musical_Inst	Nonliving_Things	44.2	4.0	missing data	0
45.05	0.85	1.2803542613983154	n/a	1.0	1.0	piano	'nV_V'	piano__7.jpg	4.0	1.0	Musical_Inst	Nonliving_Things	45.05	4.0	missing data	1
45.9	0.85	1.2803542613983154	n/a	1.0	1.0	piano	'nV_V'	piano__7.jpg	4.0	1.0	Musical_Inst	Nonliving_Things	45.9	4.0	missing data	1
46.75	0.85	1.2803542613983154	n/a	1.0	1.0	piano	'nV_V'	piano__7.jpg	4.0	1.0	Musical_Inst	Nonliving_Things	46.75	4.0	missing data	1
47.6	0.85	1.2803542613983154	n/a	1.0	1.0	piano	'nV_V'	piano__7.jpg	4.0	1.0	Musical_Inst	Nonliving_Things	47.6	4.0	missing data	0
48.45	0.85	1.2803542613983154	n/a	1.0	1.0	piano	'nV_V'	piano__7.jpg	4.0	1.0	Musical_Inst	Nonliving_Things	48.45	4.0	missing data	0
49.3	0.85	1.2803542613983154	n/a	1.0	1.0	piano	'nV_V'	piano__7.jpg	4.0	1.0	Musical_Inst	Nonliving_Things	49.3	4.0	missing data	0
50.15	0.85	1.2803542613983154	n/a	1.0	1.0	piano	'nV_V'	piano__7.jpg	4.0	1.0	Musical_Inst	Nonliving_Things	50.15	4.0	missing data	0
51.0	0.85	1.2803542613983154	n/a	1.0	1.0	piano	'nV_V'	piano__7.jpg	4.0	1.0	Musical_Inst	Nonliving_Things	51.0	4.0	missing data	0
51.85	0.85	1.2803542613983154	n/a	1.0	1.0	piano	'nV_V'	piano__7.jpg	4.0	1.0	Musical_Inst	Nonliving_Things	51.85	4.0	missing data	0
52.7	0.85	1.210016846656799	n/a	1.0	1.0	partridge	'V_nV'	partridge_10.jpg	4.0	1.0	Birds	Living_Things	52.7	5.0	missing data	0
53.55	0.85	1.210016846656799	n/a	1.0	1.0	partridge	'V_nV'	partridge_10.jpg	4.0	1.0	Birds	Living_Things	53.55	5.0	missing data	0
54.4	0.85	1.210016846656799	n/a	1.0	1.0	partridge	'V_nV'	partridge_10.jpg	4.0	1.0	Birds	Living_Things	54.4	5.0	missing data	0
55.25	0.85	1.210016846656799	n/a	1.0	1.0	partridge	'V_nV'	partridge_10.jpg	4.0	1.0	Birds	Living_Things	55.25	5.0	missing data	0
56.1	0.85	1.210016846656799	n/a	1.0	1.0	partridge	'V_nV'	partridge_10.jpg	4.0	1.0	Birds	Living_Things	56.1	5.0	missing data	0
56.95	0.85	1.210016846656799	n/a	1.0	1.0	partridge	'V_nV'	partridge_10.jpg	4.0	1.0	Birds	Living_Things	56.95	5.0	missing data	0
57.8	0.85	1.210016846656799	n/a	1.0	1.0	partridge	'V_nV'	partridge_10.jpg	4.0	1.0	Birds	Living_Things	57.8	5.0	missing data	1
58.65	0.85	1.210016846656799	n/a	1.0	1.0	partridge	'V_nV'	partridge_10.jpg	4.0	1.0	Birds	Living_Things	58.65	5.0	missing data	1
59.5	0.85	1.210016846656799	n/a	1.0	1.0	partridge	'V_nV'	partridge_10.jpg	4.0	1.0	Birds	Living_Things	59.5	5.0	missing data	1
60.35	0.85	1.210016846656799	n/a	1.0	1.0	partridge	'V_nV'	partridge_10.jpg	4.0	1.0	Birds	Living_Things	60.35	5.0	missing data	0
61.2	0.85	1.210016846656799	n/a	1.0	1.0	partridge	'V_nV'	partridge_10.jpg	4.0	1.0	Birds	Living_Things	61.2	5.0	missing data	0
62.05	0.85	1.210016846656799	n/a	1.0	1.0	partridge	'V_nV'	partridge_10.jpg	4.0	1.0	Birds	Living_Things	62.05	5.0	missing data	0
62.9	0.85	1.210016846656799	n/a	1.0	1.0	partridge	'V_nV'	partridge_10.jpg	4.0	1.0	Birds	Living_Things	62.9	5.0	missing data	0
63.75	0.85	1.210016846656799	n/a	1.0	1.0	partridge	'V_nV'	partridge_10.jpg	4.0	1.0	Birds	Living_Things	63.75	5.0	missing data	0
64.6	0.85	0.4302826821804047	0.2802854478359222	1.0	2.0	castle	'V_nV'	castle_21.jpg	4.0	2.0	Buildings	Nonliving_Things	64.6	6.0	glimpse	0
65.45	0.85	0.4302826821804047	0.2802854478359222	1.0	2.0	castle	'V_nV'	castle_21.jpg	4.0	2.0	Buildings	Nonliving_Things	65.45	6.0	glimpse	0
66.3	0.85	0.4302826821804047	0.2802854478359222	1.0	2.0	castle	'V_nV'	castle_21.jpg	4.0	2.0	Buildings	Nonliving_Things	66.3	6.0	glimpse	0
67.14999999999999	0.85	0.4302826821804047	0.2802854478359222	1.0	2.0	castle	'V_nV'	castle_21.jpg	4.0	2.0	Buildings	Nonliving_Things	67.14999999999999	6.0	glimpse	0
68.0	0.85	0.4302826821804047	0.2802854478359222	1.0	2.0	castle	'V_nV'	castle_21.jpg	4.0	2.0	Buildings	Nonliving_Things	68.0	6.0	glimpse	0
68.85	0.85	0.4302826821804047	0.2802854478359222	1.0	2.0	castle	'V_nV'	castle_21.jpg	4.0	2.0	Buildings	Nonliving_Things	68.85	6.0	glimpse	0
69.7	0.85	0.4302826821804047	0.2802854478359222	1.0	2.0	castle	'V_nV'	castle_21.jpg	4.0	2.0	Buildings	Nonliving_Things	69.7	6.0	glimpse	0
70.55	0.85	0.4302826821804047	0.2802854478359222	1.0	2.0	castle	'V_nV'	castle_21.jpg	4.0	2.0	Buildings	Nonliving_Things	70.55	6.0	glimpse	1
71.39999999999999	0.85	0.4302826821804047	0.2802854478359222	1.0	2.0	castle	'V_nV'	castle_21.jpg	4.0	2.0	Buildings	Nonliving_Things	71.39999999999999	6.0	glimpse	1
72.25	0.85	0.4302826821804047	0.2802854478359222	1.0	2.0	castle	'V_nV'	castle_21.jpg	4.0	2.0	Buildings	Nonliving_Things	72.25	6.0	glimpse	1
73.1	0.85	0.4302826821804047	0.2802854478359222	1.0	2.0	castle	'V_nV'	castle_21.jpg	4.0	2.0	Buildings	Nonliving_Things	73.1	6.0	glimpse	0
73.95	0.85	0.4302826821804047	0.2802854478359222	1.0	2.0	castle	'V_nV'	castle_21.jpg	4.0	2.0	Buildings	Nonliving_Things	73.95	6.0	glimpse	0
74.8	0.85	0.4302826821804047	0.2802854478359222	1.0	2.0	castle	'V_nV'	castle_21.jpg	4.0	2.0	Buildings	Nonliving_Things	74.8	6.0	glimpse	0
75.64999999999999	0.85	0.4302826821804047	0.2802854478359222	1.0	2.0	castle	'V_nV'	castle_21.jpg	4.0	2.0	Buildings	Nonliving_Things	75.64999999999999	6.0	glimpse	0
76.5	0.85	0.990236222743988	0.2102891951799392	0.0	2.0	manatee	'nV_V'	manatee_13.jpg	3.0	1.0	Marine_creatures	Living_Things	76.5	7.0	unconscious	0
77.35	0.85	0.990236222743988	0.2102891951799392	0.0	2.0	manatee	'nV_V'	manatee_13.jpg	3.0	1.0	Marine_creatures	Living_Things	77.35	7.0	unconscious	0
78.2	0.85	0.990236222743988	0.2102891951799392	0.0	2.0	manatee	'nV_V'	manatee_13.jpg	3.0	1.0	Marine_creatures	Living_Things	78.2	7.0	unconscious	0
79.05	0.85	0.990236222743988	0.2102891951799392	0.0	2.0	manatee	'nV_V'	manatee_13.jpg	3.0	1.0	Marine_creatures	Living_Things	79.05	7.0	unconscious	0
79.89999999999999	0.85	0.990236222743988	0.2102891951799392	0.0	2.0	manatee	'nV_V'	manatee_13.jpg	3.0	1.0	Marine_creatures	Living_Things	79.89999999999999	7.0	unconscious	0
80.75	0.85	0.990236222743988	0.2102891951799392	0.0	2.0	manatee	'nV_V'	manatee_13.jpg	3.0	1.0	Marine_creatures	Living_Things	80.75	7.0	unconscious	0
81.6	0.85	0.990236222743988	0.2102891951799392	0.0	2.0	manatee	'nV_V'	manatee_13.jpg	3.0	1.0	Marine_creatures	Living_Things	81.6	7.0	unconscious	0
82.45	0.85	0.990236222743988	0.2102891951799392	0.0	2.0	manatee	'nV_V'	manatee_13.jpg	3.0	1.0	Marine_creatures	Living_Things	82.45	7.0	unconscious	1
83.3	0.85	0.990236222743988	0.2102891951799392	0.0	2.0	manatee	'nV_V'	manatee_13.jpg	3.0	1.0	Marine_creatures	Living_Things	83.3	7.0	unconscious	1
84.14999999999999	0.85	0.990236222743988	0.2102891951799392	0.0	2.0	manatee	'nV_V'	manatee_13.jpg	3.0	1.0	Marine_creatures	Living_Things	84.14999999999999	7.0	unconscious	1
85.0	0.85	0.990236222743988	0.2102891951799392	0.0	2.0	manatee	'nV_V'	manatee_13.jpg	3.0	1.0	Marine_creatures	Living_Things	85.0	7.0	unconscious	0
85.85	0.85	0.990236222743988	0.2102891951799392	0.0	2.0	manatee	'nV_V'	manatee_13.jpg	3.0	1.0	Marine_creatures	Living_Things	85.85	7.0	unconscious	0
86.7	0.85	0.990236222743988	0.2102891951799392	0.0	2.0	manatee	'nV_V'	manatee_13.jpg	3.0	1.0	Marine_creatures	Living_Things	86.7	7.0	unconscious	0
87.55	0.85	0.990236222743988	0.2102891951799392	0.0	2.0	manatee	'nV_V'	manatee_13.jpg	3.0	1.0	Marine_creatures	Living_Things	87.55	7.0	unconscious	0
88.39999999999999	0.85	0.3903110325336456	0.0902866050601005	1.0	2.0	car	'V_nV'	car_7.jpg	5.0	2.0	Vehicles	Nonliving_Things	88.39999999999999	8.0	conscious	0
89.25	0.85	0.3903110325336456	0.0902866050601005	1.0	2.0	car	'V_nV'	car_7.jpg	5.0	2.0	Vehicles	Nonliving_Things	89.25	8.0	conscious	0
90.1	0.85	0.3903110325336456	0.0902866050601005	1.0	2.0	car	'V_nV'	car_7.jpg	5.0	2.0	Vehicles	Nonliving_Things	90.1	8.0	conscious	0
90.95	0.85	0.3903110325336456	0.0902866050601005	1.0	2.0	car	'V_nV'	car_7.jpg	5.0	2.0	Vehicles	Nonliving_Things	90.95	8.0	conscious	0
91.8	0.85	0.3903110325336456	0.0902866050601005	1.0	2.0	car	'V_nV'	car_7.jpg	5.0	2.0	Vehicles	Nonliving_Things	91.8	8.0	conscious	0
92.65	0.85	0.3903110325336456	0.0902866050601005	1.0	2.0	car	'V_nV'	car_7.jpg	5.0	2.0	Vehicles	Nonliving_Things	92.65	8.0	conscious	0
93.5	0.85	0.3903110325336456	0.0902866050601005	1.0	2.0	car	'V_nV'	car_7.jpg	5.0	2.0	Vehicles	Nonliving_Things	93.5	8.0	conscious	0
94.35	0.85	0.3903110325336456	0.0902866050601005	1.0	2.0	car	'V_nV'	car_7.jpg	5.0	2.0	Vehicles	Nonliving_Things	94.35	8.0	conscious	1
95.2	0.85	0.3903110325336456	0.0902866050601005	1.0	2.0	car	'V_nV'	car_7.jpg	5.0	2.0	Vehicles	Nonliving_Things	95.2	8.0	conscious	1
96.05	0.85	0.3903110325336456	0.0902866050601005	1.0	2.0	car	'V_nV'	car_7.jpg	5.0	2.0	Vehicles	Nonliving_Things	96.05	8.0	conscious	1
96.9	0.85	0.3903110325336456	0.0902866050601005	1.0	2.0	car	'V_nV'	car_7.jpg	5.0	2.0	Vehicles	Nonliving_Things	96.9	8.0	conscious	0
97.75	0.85	0.3903110325336456	0.0902866050601005	1.0	2.0	car	'V_nV'	car_7.jpg	5.0	2.0	Vehicles	Nonliving_Things	97.75	8.0	conscious	0
98.6	0.85	0.3903110325336456	0.0902866050601005	1.0	2.0	car	'V_nV'	car_7.jpg	5.0	2.0	Vehicles	Nonliving_Things	98.6	8.0	conscious	0
99.45	0.85	0.3903110325336456	0.0902866050601005	1.0	2.0	car	'V_nV'	car_7.jpg	5.0	2.0	Vehicles	Nonliving_Things	99.45	8.0	conscious	0
100.3	0.85	0.3903110325336456	0.0902866050601005	1.0	2.0	car	'V_nV'	car_7.jpg	5.0	2.0	Vehicles	Nonliving_Things	100.3	8.0	conscious	0
101.15	0.85	0.3903110325336456	0.0902866050601005	1.0	2.0	car	'V_nV'	car_7.jpg	5.0	2.0	Vehicles	Nonliving_Things	101.15	8.0	conscious	0
102.0	0.85	0.3903110325336456	0.0902866050601005	1.0	2.0	car	'V_nV'	car_7.jpg	5.0	2.0	Vehicles	Nonliving_Things	102.0	8.0	conscious	0
102.85	0.85	0.3402836620807648	0.2902862131595612	0.0	1.0	narwhal	'V_nV'	narwhal_18.jpg	2.0	2.0	Marine_creatures	Living_Things	102.85	9.0	unconscious	0
103.7	0.85	0.3402836620807648	0.2902862131595612	0.0	1.0	narwhal	'V_nV'	narwhal_18.jpg	2.0	2.0	Marine_creatures	Living_Things	103.7	9.0	unconscious	0
104.55	0.85	0.3402836620807648	0.2902862131595612	0.0	1.0	narwhal	'V_nV'	narwhal_18.jpg	2.0	2.0	Marine_creatures	Living_Things	104.55	9.0	unconscious	0
105.4	0.85	0.3402836620807648	0.2902862131595612	0.0	1.0	narwhal	'V_nV'	narwhal_18.jpg	2.0	2.0	Marine_creatures	Living_Things	105.4	9.0	unconscious	0
106.25	0.85	0.3402836620807648	0.2902862131595612	0.0	1.0	narwhal	'V_nV'	narwhal_18.jpg	2.0	2.0	Marine_creatures	Living_Things	106.25	9.0	unconscious	0
107.1	0.85	0.3402836620807648	0.2902862131595612	0.0	1.0	narwhal	'V_nV'	narwhal_18.jpg	2.0	2.0	Marine_creatures	Living_Things	107.1	9.0	unconscious	0
107.95	0.85	0.3402836620807648	0.2902862131595612	0.0	1.0	narwhal	'V_nV'	narwhal_18.jpg	2.0	2.0	Marine_creatures	Living_Things	107.95	9.0	unconscious	1
108.8	0.85	0.3402836620807648	0.2902862131595612	0.0	1.0	narwhal	'V_nV'	narwhal_18.jpg	2.0	2.0	Marine_creatures	Living_Things	108.8	9.0	unconscious	1
109.65	0.85	0.3402836620807648	0.2902862131595612	0.0	1.0	narwhal	'V_nV'	narwhal_18.jpg	2.0	2.0	Marine_creatures	Living_Things	109.65	9.0	unconscious	1
110.5	0.85	0.3402836620807648	0.2902862131595612	0.0	1.0	narwhal	'V_nV'	narwhal_18.jpg	2.0	2.0	Marine_creatures	Living_Things	110.5	9.0	unconscious	1
111.35	0.85	0.3402836620807648	0.2902862131595612	0.0	1.0	narwhal	'V_nV'	narwhal_18.jpg	2.0	2.0	Marine_creatures	Living_Things	111.35	9.0	unconscious	0
112.2	0.85	0.3402836620807648	0.2902862131595612	0.0	1.0	narwhal	'V_nV'	narwhal_18.jpg	2.0	2.0	Marine_creatures	Living_Things	112.2	9.0	unconscious	0
113.05	0.85	0.3402836620807648	0.2902862131595612	0.0	1.0	narwhal	'V_nV'	narwhal_18.jpg	2.0	2.0	Marine_creatures	Living_Things	113.05	9.0	unconscious	0
113.9	0.85	0.3402836620807648	0.2902862131595612	0.0	1.0	narwhal	'V_nV'	narwhal_18.jpg	2.0	2.0	Marine_creatures	Living_Things	113.9	9.0	unconscious	0
114.75	0.85	0.3402836620807648	0.2902862131595612	0.0	1.0	narwhal	'V_nV'	narwhal_18.jpg	2.0	2.0	Marine_creatures	Living_Things	114.75	9.0	unconscious	0
115.6	0.85	0.3402836620807648	0.2902862131595612	0.0	1.0	narwhal	'V_nV'	narwhal_18.jpg	2.0	2.0	Marine_creatures	Living_Things	115.6	9.0	unconscious	0
116.45	0.85	0.5002807378768921	n/a	0.0	2.0	chair	'V_nV'	chair_21.jpg	4.0	1.0	Furniture	Nonliving_Things	116.45	10.0	missing data	0
117.3	0.85	0.5002807378768921	n/a	0.0	2.0	chair	'V_nV'	chair_21.jpg	4.0	1.0	Furniture	Nonliving_Things	117.3	10.0	missing data	0
118.15	0.85	0.5002807378768921	n/a	0.0	2.0	chair	'V_nV'	chair_21.jpg	4.0	1.0	Furniture	Nonliving_Things	118.15	10.0	missing data	0
119.0	0.85	0.5002807378768921	n/a	0.0	2.0	chair	'V_nV'	chair_21.jpg	4.0	1.0	Furniture	Nonliving_Things	119.0	10.0	missing data	0
119.85	0.85	0.5002807378768921	n/a	0.0	2.0	chair	'V_nV'	chair_21.jpg	4.0	1.0	Furniture	Nonliving_Things	119.85	10.0	missing data	0
120.7	0.85	0.5002807378768921	n/a	0.0	2.0	chair	'V_nV'	chair_21.jpg	4.0	1.0	Furniture	Nonliving_Things	120.7	10.0	missing data	0
121.55	0.85	0.5002807378768921	n/a	0.0	2.0	chair	'V_nV'	chair_21.jpg	4.0	1.0	Furniture	Nonliving_Things	121.55	10.0	missing data	1
122.4	0.85	0.5002807378768921	n/a	0.0	2.0	chair	'V_nV'	chair_21.jpg	4.0	1.0	Furniture	Nonliving_Things	122.4	10.0	missing data	1
123.25	0.85	0.5002807378768921	n/a	0.0	2.0	chair	'V_nV'	chair_21.jpg	4.0	1.0	Furniture	Nonliving_Things	123.25	10.0	missing data	1
124.1	0.85	0.5002807378768921	n/a	0.0	2.0	chair	'V_nV'	chair_21.jpg	4.0	1.0	Furniture	Nonliving_Things	124.1	10.0	missing data	1
124.95	0.85	0.5002807378768921	n/a	0.0	2.0	chair	'V_nV'	chair_21.jpg	4.0	1.0	Furniture	Nonliving_Things	124.95	10.0	missing data	0
125.8	0.85	0.5002807378768921	n/a	0.0	2.0	chair	'V_nV'	chair_21.jpg	4.0	1.0	Furniture	Nonliving_Things	125.8	10.0	missing data	0
126.65	0.85	0.5002807378768921	n/a	0.0	2.0	chair	'V_nV'	chair_21.jpg	4.0	1.0	Furniture	Nonliving_Things	126.65	10.0	missing data	0
127.5	0.85	0.5002807378768921	n/a	0.0	2.0	chair	'V_nV'	chair_21.jpg	4.0	1.0	Furniture	Nonliving_Things	127.5	10.0	missing data	0
128.35	0.85	0.5002807378768921	n/a	0.0	2.0	chair	'V_nV'	chair_21.jpg	4.0	1.0	Furniture	Nonliving_Things	128.35	10.0	missing data	0
129.2	0.85	0.5002807378768921	n/a	0.0	2.0	chair	'V_nV'	chair_21.jpg	4.0	1.0	Furniture	Nonliving_Things	129.2	10.0	missing data	0
130.04999999999998	0.85	0.5002807378768921	n/a	0.0	2.0	chair	'V_nV'	chair_21.jpg	4.0	1.0	Furniture	Nonliving_Things	130.04999999999998	10.0	missing data	0
130.9	0.85	1.2502810955047607	n/a	0.0	2.0	pigeon	'nV_V'	pigeon_23.jpg	4.0	1.0	Birds	Living_Things	130.9	11.0	missing data	0
131.75	0.85	1.2502810955047607	n/a	0.0	2.0	pigeon	'nV_V'	pigeon_23.jpg	4.0	1.0	Birds	Living_Things	131.75	11.0	missing data	0
132.6	0.85	1.2502810955047607	n/a	0.0	2.0	pigeon	'nV_V'	pigeon_23.jpg	4.0	1.0	Birds	Living_Things	132.6	11.0	missing data	0
133.45	0.85	1.2502810955047607	n/a	0.0	2.0	pigeon	'nV_V'	pigeon_23.jpg	4.0	1.0	Birds	Living_Things	133.45	11.0	missing data	0
134.29999999999998	0.85	1.2502810955047607	n/a	0.0	2.0	pigeon	'nV_V'	pigeon_23.jpg	4.0	1.0	Birds	Living_Things	134.29999999999998	11.0	missing data	0
135.15	0.85	1.2502810955047607	n/a	0.0	2.0	pigeon	'nV_V'	pigeon_23.jpg	4.0	1.0	Birds	Living_Things	135.15	11.0	missing data	0
136.0	0.85	1.2502810955047607	n/a	0.0	2.0	pigeon	'nV_V'	pigeon_23.jpg	4.0	1.0	Birds	Living_Things	136.0	11.0	missing data	1
136.85	0.85	1.2502810955047607	n/a	0.0	2.0	pigeon	'nV_V'	pigeon_23.jpg	4.0	1.0	Birds	Living_Things	136.85	11.0	missing data	1
137.7	0.85	1.2502810955047607	n/a	0.0	2.0	pigeon	'nV_V'	pigeon_23.jpg	4.0	1.0	Birds	Living_Things	137.7	11.0	missing data	1
138.54999999999998	0.85	1.2502810955047607	n/a	0.0	2.0	pigeon	'nV_V'	pigeon_23.jpg	4.0	1.0	Birds	Living_Things	138.54999999999998	11.0	missing data	1
139.4	0.85	1.2502810955047607	n/a	0.0	2.0	pigeon	'nV_V'	pigeon_23.jpg	4.0	1.0	Birds	Living_Things	139.4	11.0	missing data	0
140.25	0.85	1.2502810955047607	n/a	0.0	2.0	pigeon	'nV_V'	pigeon_23.jpg	4.0	1.0	Birds	Living_Things	140.25	11.0	missing data	0
141.1	0.85	1.2502810955047607	n/a	0.0	2.0	pigeon	'nV_V'	pigeon_23.jpg	4.0	1.0	Birds	Living_Things	141.1	11.0	missing data	0
141.95	0.85	1.2502810955047607	n/a	0.0	2.0	pigeon	'nV_V'	pigeon_23.jpg	4.0	1.0	Birds	Living_Things	141.95	11.0	missing data	0
142.79999999999998	0.85	1.2502810955047607	n/a	0.0	2.0	pigeon	'nV_V'	pigeon_23.jpg	4.0	1.0	Birds	Living_Things	142.79999999999998	11.0	missing data	0
143.65	0.85	1.2502810955047607	n/a	0.0	2.0	pigeon	'nV_V'	pigeon_23.jpg	4.0	1.0	Birds	Living_Things	143.65	11.0	missing data	0
144.5	0.85	1.2502810955047607	n/a	0.0	2.0	pigeon	'nV_V'	pigeon_23.jpg	4.0	1.0	Birds	Living_Things	144.5	11.0	missing data	0
145.35	0.85	1.2502810955047607	n/a	0.0	2.0	pigeon	'nV_V'	pigeon_23.jpg	4.0	1.0	Birds	Living_Things	145.35	11.0	missing data	0
146.2	0.85	0.4102821946144104	0.0202816687524318	1.0	1.0	lioness	'V_nV'	lioness_1.jpg	4.0	1.0	Animals	Living_Things	146.2	12.0	unconscious	0
147.04999999999998	0.85	0.4102821946144104	0.0202816687524318	1.0	1.0	lioness	'V_nV'	lioness_1.jpg	4.0	1.0	Animals	Living_Things	147.04999999999998	12.0	unconscious	0
147.9	0.85	0.4102821946144104	0.0202816687524318	1.0	1.0	lioness	'V_nV'	lioness_1.jpg	4.0	1.0	Animals	Living_Things	147.9	12.0	unconscious	0
148.75	0.85	0.4102821946144104	0.0202816687524318	1.0	1.0	lioness	'V_nV'	lioness_1.jpg	4.0	1.0	Animals	Living_Things	148.75	12.0	unconscious	0
149.6	0.85	0.4102821946144104	0.0202816687524318	1.0	1.0	lioness	'V_nV'	lioness_1.jpg	4.0	1.0	Animals	Living_Things	149.6	12.0	unconscious	0
150.45	0.85	0.4102821946144104	0.0202816687524318	1.0	1.0	lioness	'V_nV'	lioness_1.jpg	4.0	1.0	Animals	Living_Things	150.45	12.0	unconscious	0
151.29999999999998	0.85	0.4102821946144104	0.0202816687524318	1.0	1.0	lioness	'V_nV'	lioness_1.jpg	4.0	1.0	Animals	Living_Things	151.29999999999998	12.0	unconscious	1
152.15	0.85	0.4102821946144104	0.0202816687524318	1.0	1.0	lioness	'V_nV'	lioness_1.jpg	4.0	1.0	Animals	Living_Things	152.15	12.0	unconscious	1
153.0	0.85	0.4102821946144104	0.0202816687524318	1.0	1.0	lioness	'V_nV'	lioness_1.jpg	4.0	1.0	Animals	Living_Things	153.0	12.0	unconscious	1
153.85	0.85	0.4102821946144104	0.0202816687524318	1.0	1.0	lioness	'V_nV'	lioness_1.jpg	4.0	1.0	Animals	Living_Things	153.85	12.0	unconscious	1
154.7	0.85	0.4102821946144104	0.0202816687524318	1.0	1.0	lioness	'V_nV'	lioness_1.jpg	4.0	1.0	Animals	Living_Things	154.7	12.0	unconscious	0
155.54999999999998	0.85	0.4102821946144104	0.0202816687524318	1.0	1.0	lioness	'V_nV'	lioness_1.jpg	4.0	1.0	Animals	Living_Things	155.54999999999998	12.0	unconscious	0
156.4	0.85	0.4102821946144104	0.0202816687524318	1.0	1.0	lioness	'V_nV'	lioness_1.jpg	4.0	1.0	Animals	Living_Things	156.4	12.0	unconscious	0
157.25	0.85	0.4102821946144104	0.0202816687524318	1.0	1.0	lioness	'V_nV'	lioness_1.jpg	4.0	1.0	Animals	Living_Things	157.25	12.0	unconscious	0
158.1	0.85	0.4102821946144104	0.0202816687524318	1.0	1.0	lioness	'V_nV'	lioness_1.jpg	4.0	1.0	Animals	Living_Things	158.1	12.0	unconscious	0
158.95	0.85	0.4103054106235504	0.2302920669317245	1.0	2.0	magpie	'nV_V'	magpie_2.jpg	6.0	2.0	Birds	Living_Things	158.95	13.0	unconscious	0
159.79999999999998	0.85	0.4103054106235504	0.2302920669317245	1.0	2.0	magpie	'nV_V'	magpie_2.jpg	6.0	2.0	Birds	Living_Things	159.79999999999998	13.0	unconscious	0
160.65	0.85	0.4103054106235504	0.2302920669317245	1.0	2.0	magpie	'nV_V'	magpie_2.jpg	6.0	2.0	Birds	Living_Things	160.65	13.0	unconscious	0
161.5	0.85	0.4103054106235504	0.2302920669317245	1.0	2.0	magpie	'nV_V'	magpie_2.jpg	6.0	2.0	Birds	Living_Things	161.5	13.0	unconscious	0
162.35	0.85	0.4103054106235504	0.2302920669317245	1.0	2.0	magpie	'nV_V'	magpie_2.jpg	6.0	2.0	Birds	Living_Things	162.35	13.0	unconscious	0
163.2	0.85	0.4103054106235504	0.2302920669317245	1.0	2.0	magpie	'nV_V'	magpie_2.jpg	6.0	2.0	Birds	Living_Things	163.2	13.0	unconscious	0
164.04999999999998	0.85	0.4103054106235504	0.2302920669317245	1.0	2.0	magpie	'nV_V'	magpie_2.jpg	6.0	2.0	Birds	Living_Things	164.04999999999998	13.0	unconscious	0
164.9	0.85	0.4103054106235504	0.2302920669317245	1.0	2.0	magpie	'nV_V'	magpie_2.jpg	6.0	2.0	Birds	Living_Things	164.9	13.0	unconscious	1
165.75	0.85	0.4103054106235504	0.2302920669317245	1.0	2.0	magpie	'nV_V'	magpie_2.jpg	6.0	2.0	Birds	Living_Things	165.75	13.0	unconscious	1
166.6	0.85	0.4103054106235504	0.2302920669317245	1.0	2.0	magpie	'nV_V'	magpie_2.jpg	6.0	2.0	Birds	Living_Things	166.6	13.0	unconscious	1
167.45	0.85	0.4103054106235504	0.2302920669317245	1.0	2.0	magpie	'nV_V'	magpie_2.jpg	6.0	2.0	Birds	Living_Things	167.45	13.0	unconscious	0
168.29999999999998	0.85	0.4103054106235504	0.2302920669317245	1.0	2.0	magpie	'nV_V'	magpie_2.jpg	6.0	2.0	Birds	Living_Things	168.29999999999998	13.0	unconscious	0
169.15	0.85	0.4103054106235504	0.2302920669317245	1.0	2.0	magpie	'nV_V'	magpie_2.jpg	6.0	2.0	Birds	Living_Things	169.15	13.0	unconscious	0
170.0	0.85	0.4103054106235504	0.2302920669317245	1.0	2.0	magpie	'nV_V'	magpie_2.jpg	6.0	2.0	Birds	Living_Things	170.0	13.0	unconscious	0
170.85	0.85	0.5503325462341309	0.0903196111321449	1.0	1.0	ostrich	'V_nV'	ostrich_3.jpg	9.0	1.0	Birds	Living_Things	170.85	14.0	glimpse	0
171.7	0.85	0.5503325462341309	0.0903196111321449	1.0	1.0	ostrich	'V_nV'	ostrich_3.jpg	9.0	1.0	Birds	Living_Things	171.7	14.0	glimpse	0
172.54999999999998	0.85	0.5503325462341309	0.0903196111321449	1.0	1.0	ostrich	'V_nV'	ostrich_3.jpg	9.0	1.0	Birds	Living_Things	172.54999999999998	14.0	glimpse	0
173.4	0.85	0.5503325462341309	0.0903196111321449	1.0	1.0	ostrich	'V_nV'	ostrich_3.jpg	9.0	1.0	Birds	Living_Things	173.4	14.0	glimpse	0
174.25	0.85	0.5503325462341309	0.0903196111321449	1.0	1.0	ostrich	'V_nV'	ostrich_3.jpg	9.0	1.0	Birds	Living_Things	174.25	14.0	glimpse	0
175.1	0.85	0.5503325462341309	0.0903196111321449	1.0	1.0	ostrich	'V_nV'	ostrich_3.jpg	9.0	1.0	Birds	Living_Things	175.1	14.0	glimpse	0
175.95	0.85	0.5503325462341309	0.0903196111321449	1.0	1.0	ostrich	'V_nV'	ostrich_3.jpg	9.0	1.0	Birds	Living_Things	175.95	14.0	glimpse	0
176.79999999999998	0.85	0.5503325462341309	0.0903196111321449	1.0	1.0	ostrich	'V_nV'	ostrich_3.jpg	9.0	1.0	Birds	Living_Things	176.79999999999998	14.0	glimpse	1
177.65	0.85	0.5503325462341309	0.0903196111321449	1.0	1.0	ostrich	'V_nV'	ostrich_3.jpg	9.0	1.0	Birds	Living_Things	177.65	14.0	glimpse	1
178.5	0.85	0.5503325462341309	0.0903196111321449	1.0	1.0	ostrich	'V_nV'	ostrich_3.jpg	9.0	1.0	Birds	Living_Things	178.5	14.0	glimpse	1
179.35	0.85	0.5503325462341309	0.0903196111321449	1.0	1.0	ostrich	'V_nV'	ostrich_3.jpg	9.0	1.0	Birds	Living_Things	179.35	14.0	glimpse	0
180.2	0.85	0.5503325462341309	0.0903196111321449	1.0	1.0	ostrich	'V_nV'	ostrich_3.jpg	9.0	1.0	Birds	Living_Things	180.2	14.0	glimpse	0
181.05	0.85	0.5503325462341309	0.0903196111321449	1.0	1.0	ostrich	'V_nV'	ostrich_3.jpg	9.0	1.0	Birds	Living_Things	181.05	14.0	glimpse	0
181.9	0.85	0.5503325462341309	0.0903196111321449	1.0	1.0	ostrich	'V_nV'	ostrich_3.jpg	9.0	1.0	Birds	Living_Things	181.9	14.0	glimpse	0
182.75	0.85	0.5503325462341309	0.0903196111321449	1.0	1.0	ostrich	'V_nV'	ostrich_3.jpg	9.0	1.0	Birds	Living_Things	182.75	14.0	glimpse	0
183.6	0.85	0.7903342843055725	0.2502859830856323	1.0	2.0	coking-pot	'V_nV'	coking-pot_16.jpg	8.0	2.0	Kitchen_Uten	Nonliving_Things	183.6	15.0	glimpse	0
184.45	0.85	0.7903342843055725	0.2502859830856323	1.0	2.0	coking-pot	'V_nV'	coking-pot_16.jpg	8.0	2.0	Kitchen_Uten	Nonliving_Things	184.45	15.0	glimpse	0
185.3	0.85	0.7903342843055725	0.2502859830856323	1.0	2.0	coking-pot	'V_nV'	coking-pot_16.jpg	8.0	2.0	Kitchen_Uten	Nonliving_Things	185.3	15.0	glimpse	0
186.15	0.85	0.7903342843055725	0.2502859830856323	1.0	2.0	coking-pot	'V_nV'	coking-pot_16.jpg	8.0	2.0	Kitchen_Uten	Nonliving_Things	186.15	15.0	glimpse	0
187.0	0.85	0.7903342843055725	0.2502859830856323	1.0	2.0	coking-pot	'V_nV'	coking-pot_16.jpg	8.0	2.0	Kitchen_Uten	Nonliving_Things	187.0	15.0	glimpse	0
187.85	0.85	0.7903342843055725	0.2502859830856323	1.0	2.0	coking-pot	'V_nV'	coking-pot_16.jpg	8.0	2.0	Kitchen_Uten	Nonliving_Things	187.85	15.0	glimpse	0
188.7	0.85	0.7903342843055725	0.2502859830856323	1.0	2.0	coking-pot	'V_nV'	coking-pot_16.jpg	8.0	2.0	Kitchen_Uten	Nonliving_Things	188.7	15.0	glimpse	1
189.55	0.85	0.7903342843055725	0.2502859830856323	1.0	2.0	coking-pot	'V_nV'	coking-pot_16.jpg	8.0	2.0	Kitchen_Uten	Nonliving_Things	189.55	15.0	glimpse	1
190.4	0.85	0.7903342843055725	0.2502859830856323	1.0	2.0	coking-pot	'V_nV'	coking-pot_16.jpg	8.0	2.0	Kitchen_Uten	Nonliving_Things	190.4	15.0	glimpse	1
191.25	0.85	0.7903342843055725	0.2502859830856323	1.0	2.0	coking-pot	'V_nV'	coking-pot_16.jpg	8.0	2.0	Kitchen_Uten	Nonliving_Things	191.25	15.0	glimpse	0
192.1	0.85	0.7903342843055725	0.2502859830856323	1.0	2.0	coking-pot	'V_nV'	coking-pot_16.jpg	8.0	2.0	Kitchen_Uten	Nonliving_Things	192.1	15.0	glimpse	0
192.95	0.85	0.7903342843055725	0.2502859830856323	1.0	2.0	coking-pot	'V_nV'	coking-pot_16.jpg	8.0	2.0	Kitchen_Uten	Nonliving_Things	192.95	15.0	glimpse	0
193.8	0.85	0.7903342843055725	0.2502859830856323	1.0	2.0	coking-pot	'V_nV'	coking-pot_16.jpg	8.0	2.0	Kitchen_Uten	Nonliving_Things	193.8	15.0	glimpse	0
194.65	0.85	0.7903342843055725	0.2502859830856323	1.0	2.0	coking-pot	'V_nV'	coking-pot_16.jpg	8.0	2.0	Kitchen_Uten	Nonliving_Things	194.65	15.0	glimpse	0
195.5	0.85	0.7903342843055725	0.2502859830856323	1.0	2.0	coking-pot	'V_nV'	coking-pot_16.jpg	8.0	2.0	Kitchen_Uten	Nonliving_Things	195.5	15.0	glimpse	0
196.35	0.85	0.830318808555603	0.2202852219343185	1.0	1.0	church	'nV_V'	church_13.jpg	7.0	1.0	Buildings	Nonliving_Things	196.35	16.0	conscious	0
197.2	0.85	0.830318808555603	0.2202852219343185	1.0	1.0	church	'nV_V'	church_13.jpg	7.0	1.0	Buildings	Nonliving_Things	197.2	16.0	conscious	0
198.05	0.85	0.830318808555603	0.2202852219343185	1.0	1.0	church	'nV_V'	church_13.jpg	7.0	1.0	Buildings	Nonliving_Things	198.05	16.0	conscious	0
198.9	0.85	0.830318808555603	0.2202852219343185	1.0	1.0	church	'nV_V'	church_13.jpg	7.0	1.0	Buildings	Nonliving_Things	198.9	16.0	conscious	0
199.75	0.85	0.830318808555603	0.2202852219343185	1.0	1.0	church	'nV_V'	church_13.jpg	7.0	1.0	Buildings	Nonliving_Things	199.75	16.0	conscious	0
200.6	0.85	0.830318808555603	0.2202852219343185	1.0	1.0	church	'nV_V'	church_13.jpg	7.0	1.0	Buildings	Nonliving_Things	200.6	16.0	conscious	0
201.45	0.85	0.830318808555603	0.2202852219343185	1.0	1.0	church	'nV_V'	church_13.jpg	7.0	1.0	Buildings	Nonliving_Things	201.45	16.0	conscious	1
202.3	0.85	0.830318808555603	0.2202852219343185	1.0	1.0	church	'nV_V'	church_13.jpg	7.0	1.0	Buildings	Nonliving_Things	202.3	16.0	conscious	1
203.15	0.85	0.830318808555603	0.2202852219343185	1.0	1.0	church	'nV_V'	church_13.jpg	7.0	1.0	Buildings	Nonliving_Things	203.15	16.0	conscious	1
204.0	0.85	0.830318808555603	0.2202852219343185	1.0	1.0	church	'nV_V'	church_13.jpg	7.0	1.0	Buildings	Nonliving_Things	204.0	16.0	conscious	1
204.85	0.85	0.830318808555603	0.2202852219343185	1.0	1.0	church	'nV_V'	church_13.jpg	7.0	1.0	Buildings	Nonliving_Things	204.85	16.0	conscious	0
205.7	0.85	0.830318808555603	0.2202852219343185	1.0	1.0	church	'nV_V'	church_13.jpg	7.0	1.0	Buildings	Nonliving_Things	205.7	16.0	conscious	0
206.55	0.85	0.830318808555603	0.2202852219343185	1.0	1.0	church	'nV_V'	church_13.jpg	7.0	1.0	Buildings	Nonliving_Things	206.55	16.0	conscious	0
207.4	0.85	0.830318808555603	0.2202852219343185	1.0	1.0	church	'nV_V'	church_13.jpg	7.0	1.0	Buildings	Nonliving_Things	207.4	16.0	conscious	0
208.25	0.85	0.830318808555603	0.2202852219343185	1.0	1.0	church	'nV_V'	church_13.jpg	7.0	1.0	Buildings	Nonliving_Things	208.25	16.0	conscious	0
209.1	0.85	0.830318808555603	0.2202852219343185	1.0	1.0	church	'nV_V'	church_13.jpg	7.0	1.0	Buildings	Nonliving_Things	209.1	16.0	conscious	0
209.95	0.85	0.6303046941757202	0.3303166627883911	1.0	2.0	bookcase	'V_nV'	bookcase_24.jpg	5.0	2.0	Furniture	Nonliving_Things	209.95	17.0	glimpse	0
210.8	0.85	0.6303046941757202	0.3303166627883911	1.0	2.0	bookcase	'V_nV'	bookcase_24.jpg	5.0	2.0	Furniture	Nonliving_Things	210.8	17.0	glimpse	0
211.65	0.85	0.6303046941757202	0.3303166627883911	1.0	2.0	bookcase	'V_nV'	bookcase_24.jpg	5.0	2.0	Furniture	Nonliving_Things	211.65	17.0	glimpse	0
212.5	0.85	0.6303046941757202	0.3303166627883911	1.0	2.0	bookcase	'V_nV'	bookcase_24.jpg	5.0	2.0	Furniture	Nonliving_Things	212.5	17.0	glimpse	0
213.35	0.85	0.6303046941757202	0.3303166627883911	1.0	2.0	bookcase	'V_nV'	bookcase_24.jpg	5.0	2.0	Furniture	Nonliving_Things	213.35	17.0	glimpse	0
214.2	0.85	0.6303046941757202	0.3303166627883911	1.0	2.0	bookcase	'V_nV'	bookcase_24.jpg	5.0	2.0	Furniture	Nonliving_Things	214.2	17.0	glimpse	0
215.05	0.85	0.6303046941757202	0.3303166627883911	1.0	2.0	bookcase	'V_nV'	bookcase_24.jpg	5.0	2.0	Furniture	Nonliving_Things	215.05	17.0	glimpse	1
215.9	0.85	0.6303046941757202	0.3303166627883911	1.0	2.0	bookcase	'V_nV'	bookcase_24.jpg	5.0	2.0	Furniture	Nonliving_Things	215.9	17.0	glimpse	1
216.75	0.85	0.6303046941757202	0.3303166627883911	1.0	2.0	bookcase	'V_nV'	bookcase_24.jpg	5.0	2.0	Furniture	Nonliving_Things	216.75	17.0	glimpse	1
217.6	0.85	0.6303046941757202	0.3303166627883911	1.0	2.0	bookcase	'V_nV'	bookcase_24.jpg	5.0	2.0	Furniture	Nonliving_Things	217.6	17.0	glimpse	1
218.45	0.85	0.6303046941757202	0.3303166627883911	1.0	2.0	bookcase	'V_nV'	bookcase_24.jpg	5.0	2.0	Furniture	Nonliving_Things	218.45	17.0	glimpse	0
219.3	0.85	0.6303046941757202	0.3303166627883911	1.0	2.0	bookcase	'V_nV'	bookcase_24.jpg	5.0	2.0	Furniture	Nonliving_Things	219.3	17.0	glimpse	0
220.15	0.85	0.6303046941757202	0.3303166627883911	1.0	2.0	bookcase	'V_nV'	bookcase_24.jpg	5.0	2.0	Furniture	Nonliving_Things	220.15	17.0	glimpse	0
221.0	0.85	0.6303046941757202	0.3303166627883911	1.0	2.0	bookcase	'V_nV'	bookcase_24.jpg	5.0	2.0	Furniture	Nonliving_Things	221.0	17.0	glimpse	0
221.85	0.85	0.6303046941757202	0.3303166627883911	1.0	2.0	bookcase	'V_nV'	bookcase_24.jpg	5.0	2.0	Furniture	Nonliving_Things	221.85	17.0	glimpse	0
222.7	0.85	0.6003159880638123	0.2003127932548523	1.0	1.0	bedside-table	'nV_V'	bedside-table_2.jpg	4.0	1.0	Furniture	Nonliving_Things	222.7	18.0	glimpse	0
223.55	0.85	0.6003159880638123	0.2003127932548523	1.0	1.0	bedside-table	'nV_V'	bedside-table_2.jpg	4.0	1.0	Furniture	Nonliving_Things	223.55	18.0	glimpse	0
224.4	0.85	0.6003159880638123	0.2003127932548523	1.0	1.0	bedside-table	'nV_V'	bedside-table_2.jpg	4.0	1.0	Furniture	Nonliving_Things	224.4	18.0	glimpse	0
225.25	0.85	0.6003159880638123	0.2003127932548523	1.0	1.0	bedside-table	'nV_V'	bedside-table_2.jpg	4.0	1.0	Furniture	Nonliving_Things	225.25	18.0	glimpse	0
226.1	0.85	0.6003159880638123	0.2003127932548523	1.0	1.0	bedside-table	'nV_V'	bedside-table_2.jpg	4.0	1.0	Furniture	Nonliving_Things	226.1	18.0	glimpse	0
226.95	0.85	0.6003159880638123	0.2003127932548523	1.0	1.0	bedside-table	'nV_V'	bedside-table_2.jpg	4.0	1.0	Furniture	Nonliving_Things	226.95	18.0	glimpse	0
227.8	0.85	0.6003159880638123	0.2003127932548523	1.0	1.0	bedside-table	'nV_V'	bedside-table_2.jpg	4.0	1.0	Furniture	Nonliving_Things	227.8	18.0	glimpse	1
228.65	0.85	0.6003159880638123	0.2003127932548523	1.0	1.0	bedside-table	'nV_V'	bedside-table_2.jpg	4.0	1.0	Furniture	Nonliving_Things	228.65	18.0	glimpse	1
229.5	0.85	0.6003159880638123	0.2003127932548523	1.0	1.0	bedside-table	'nV_V'	bedside-table_2.jpg	4.0	1.0	Furniture	Nonliving_Things	229.5	18.0	glimpse	1
230.35	0.85	0.6003159880638123	0.2003127932548523	1.0	1.0	bedside-table	'nV_V'	bedside-table_2.jpg	4.0	1.0	Furniture	Nonliving_Things	230.35	18.0	glimpse	1
231.2	0.85	0.6003159880638123	0.2003127932548523	1.0	1.0	bedside-table	'nV_V'	bedside-table_2.jpg	4.0	1.0	Furniture	Nonliving_Things	231.2	18.0	glimpse	0
232.05	0.85	0.6003159880638123	0.2003127932548523	1.0	1.0	bedside-table	'nV_V'	bedside-table_2.jpg	4.0	1.0	Furniture	Nonliving_Things	232.05	18.0	glimpse	0
232.9	0.85	0.6003159880638123	0.2003127932548523	1.0	1.0	bedside-table	'nV_V'	bedside-table_2.jpg	4.0	1.0	Furniture	Nonliving_Things	232.9	18.0	glimpse	0
233.75	0.85	0.6003159880638123	0.2003127932548523	1.0	1.0	bedside-table	'nV_V'	bedside-table_2.jpg	4.0	1.0	Furniture	Nonliving_Things	233.75	18.0	glimpse	0
234.6	0.85	0.6003159880638123	0.2003127932548523	1.0	1.0	bedside-table	'nV_V'	bedside-table_2.jpg	4.0	1.0	Furniture	Nonliving_Things	234.6	18.0	glimpse	0
235.45	0.85	1.450279712677002	1.4302937984466553	0.0	2.0	lynx	'nV_V'	lynx_3.jpg	3.0	1.0	Animals	Living_Things	235.45	19.0	unconscious	0
236.3	0.85	1.450279712677002	1.4302937984466553	0.0	2.0	lynx	'nV_V'	lynx_3.jpg	3.0	1.0	Animals	Living_Things	236.3	19.0	unconscious	0
237.15	0.85	1.450279712677002	1.4302937984466553	0.0	2.0	lynx	'nV_V'	lynx_3.jpg	3.0	1.0	Animals	Living_Things	237.15	19.0	unconscious	0
238.0	0.85	1.450279712677002	1.4302937984466553	0.0	2.0	lynx	'nV_V'	lynx_3.jpg	3.0	1.0	Animals	Living_Things	238.0	19.0	unconscious	0
238.85	0.85	1.450279712677002	1.4302937984466553	0.0	2.0	lynx	'nV_V'	lynx_3.jpg	3.0	1.0	Animals	Living_Things	238.85	19.0	unconscious	0
239.7	0.85	1.450279712677002	1.4302937984466553	0.0	2.0	lynx	'nV_V'	lynx_3.jpg	3.0	1.0	Animals	Living_Things	239.7	19.0	unconscious	0
240.55	0.85	1.450279712677002	1.4302937984466553	0.0	2.0	lynx	'nV_V'	lynx_3.jpg	3.0	1.0	Animals	Living_Things	240.55	19.0	unconscious	1
241.4	0.85	1.450279712677002	1.4302937984466553	0.0	2.0	lynx	'nV_V'	lynx_3.jpg	3.0	1.0	Animals	Living_Things	241.4	19.0	unconscious	1
242.25	0.85	1.450279712677002	1.4302937984466553	0.0	2.0	lynx	'nV_V'	lynx_3.jpg	3.0	1.0	Animals	Living_Things	242.25	19.0	unconscious	1
243.1	0.85	1.450279712677002	1.4302937984466553	0.0	2.0	lynx	'nV_V'	lynx_3.jpg	3.0	1.0	Animals	Living_Things	243.1	19.0	unconscious	1
243.95	0.85	1.450279712677002	1.4302937984466553	0.0	2.0	lynx	'nV_V'	lynx_3.jpg	3.0	1.0	Animals	Living_Things	243.95	19.0	unconscious	0
244.8	0.85	1.450279712677002	1.4302937984466553	0.0	2.0	lynx	'nV_V'	lynx_3.jpg	3.0	1.0	Animals	Living_Things	244.8	19.0	unconscious	0
245.65	0.85	1.450279712677002	1.4302937984466553	0.0	2.0	lynx	'nV_V'	lynx_3.jpg	3.0	1.0	Animals	Living_Things	245.65	19.0	unconscious	0
246.5	0.85	1.450279712677002	1.4302937984466553	0.0	2.0	lynx	'nV_V'	lynx_3.jpg	3.0	1.0	Animals	Living_Things	246.5	19.0	unconscious	0
247.35	0.85	0.7102827429771423	0.7502999305725098	1.0	2.0	rhino	'nV_V'	rhino_6.jpg	5.0	2.0	Animals	Living_Things	247.35	20.0	conscious	0
248.2	0.85	0.7102827429771423	0.7502999305725098	1.0	2.0	rhino	'nV_V'	rhino_6.jpg	5.0	2.0	Animals	Living_Things	248.2	20.0	conscious	0
249.05	0.85	0.7102827429771423	0.7502999305725098	1.0	2.0	rhino	'nV_V'	rhino_6.jpg	5.0	2.0	Animals	Living_Things	249.05	20.0	conscious	0
249.9	0.85	0.7102827429771423	0.7502999305725098	1.0	2.0	rhino	'nV_V'	rhino_6.jpg	5.0	2.0	Animals	Living_Things	249.9	20.0	conscious	0
250.75	0.85	0.7102827429771423	0.7502999305725098	1.0	2.0	rhino	'nV_V'	rhino_6.jpg	5.0	2.0	Animals	Living_Things	250.75	20.0	conscious	0
251.6	0.85	0.7102827429771423	0.7502999305725098	1.0	2.0	rhino	'nV_V'	rhino_6.jpg	5.0	2.0	Animals	Living_Things	251.6	20.0	conscious	0
252.45	0.85	0.7102827429771423	0.7502999305725098	1.0	2.0	rhino	'nV_V'	rhino_6.jpg	5.0	2.0	Animals	Living_Things	252.45	20.0	conscious	0
253.3	0.85	0.7102827429771423	0.7502999305725098	1.0	2.0	rhino	'nV_V'	rhino_6.jpg	5.0	2.0	Animals	Living_Things	253.3	20.0	conscious	1
254.15	0.85	0.7102827429771423	0.7502999305725098	1.0	2.0	rhino	'nV_V'	rhino_6.jpg	5.0	2.0	Animals	Living_Things	254.15	20.0	conscious	1
255.0	0.85	0.7102827429771423	0.7502999305725098	1.0	2.0	rhino	'nV_V'	rhino_6.jpg	5.0	2.0	Animals	Living_Things	255.0	20.0	conscious	1
255.85	0.85	0.7102827429771423	0.7502999305725098	1.0	2.0	rhino	'nV_V'	rhino_6.jpg	5.0	2.0	Animals	Living_Things	255.85	20.0	conscious	0
256.7	0.85	0.7102827429771423	0.7502999305725098	1.0	2.0	rhino	'nV_V'	rhino_6.jpg	5.0	2.0	Animals	Living_Things	256.7	20.0	conscious	0
257.55	0.85	0.7102827429771423	0.7502999305725098	1.0	2.0	rhino	'nV_V'	rhino_6.jpg	5.0	2.0	Animals	Living_Things	257.55	20.0	conscious	0
258.4	0.85	0.7102827429771423	0.7502999305725098	1.0	2.0	rhino	'nV_V'	rhino_6.jpg	5.0	2.0	Animals	Living_Things	258.4	20.0	conscious	0
259.25	0.85	0.7102827429771423	0.7502999305725098	1.0	2.0	rhino	'nV_V'	rhino_6.jpg	5.0	2.0	Animals	Living_Things	259.25	20.0	conscious	0
260.1	0.85	0.7102827429771423	0.7502999305725098	1.0	2.0	rhino	'nV_V'	rhino_6.jpg	5.0	2.0	Animals	Living_Things	260.1	20.0	conscious	0
260.95	0.85	1.0302798748016355	0.3302968442440033	0.0	2.0	turtle	'nV_V'	turtle_15.jpg	3.0	1.0	Animals	Living_Things	260.95	21.0	unconscious	0
261.8	0.85	1.0302798748016355	0.3302968442440033	0.0	2.0	turtle	'nV_V'	turtle_15.jpg	3.0	1.0	Animals	Living_Things	261.8	21.0	unconscious	0
262.65	0.85	1.0302798748016355	0.3302968442440033	0.0	2.0	turtle	'nV_V'	turtle_15.jpg	3.0	1.0	Animals	Living_Things	262.65	21.0	unconscious	0
263.5	0.85	1.0302798748016355	0.3302968442440033	0.0	2.0	turtle	'nV_V'	turtle_15.jpg	3.0	1.0	Animals	Living_Things	263.5	21.0	unconscious	0
264.35	0.85	1.0302798748016355	0.3302968442440033	0.0	2.0	turtle	'nV_V'	turtle_15.jpg	3.0	1.0	Animals	Living_Things	264.35	21.0	unconscious	0
265.2	0.85	1.0302798748016355	0.3302968442440033	0.0	2.0	turtle	'nV_V'	turtle_15.jpg	3.0	1.0	Animals	Living_Things	265.2	21.0	unconscious	0
266.05	0.85	1.0302798748016355	0.3302968442440033	0.0	2.0	turtle	'nV_V'	turtle_15.jpg	3.0	1.0	Animals	Living_Things	266.05	21.0	unconscious	1
266.9	0.85	1.0302798748016355	0.3302968442440033	0.0	2.0	turtle	'nV_V'	turtle_15.jpg	3.0	1.0	Animals	Living_Things	266.9	21.0	unconscious	1
267.75	0.85	1.0302798748016355	0.3302968442440033	0.0	2.0	turtle	'nV_V'	turtle_15.jpg	3.0	1.0	Animals	Living_Things	267.75	21.0	unconscious	1
268.6	0.85	1.0302798748016355	0.3302968442440033	0.0	2.0	turtle	'nV_V'	turtle_15.jpg	3.0	1.0	Animals	Living_Things	268.6	21.0	unconscious	1
269.45	0.85	1.0302798748016355	0.3302968442440033	0.0	2.0	turtle	'nV_V'	turtle_15.jpg	3.0	1.0	Animals	Living_Things	269.45	21.0	unconscious	0
270.3	0.85	1.0302798748016355	0.3302968442440033	0.0	2.0	turtle	'nV_V'	turtle_15.jpg	3.0	1.0	Animals	Living_Things	270.3	21.0	unconscious	0
271.15	0.85	1.0302798748016355	0.3302968442440033	0.0	2.0	turtle	'nV_V'	turtle_15.jpg	3.0	1.0	Animals	Living_Things	271.15	21.0	unconscious	0
272.0	0.85	1.0302798748016355	0.3302968442440033	0.0	2.0	turtle	'nV_V'	turtle_15.jpg	3.0	1.0	Animals	Living_Things	272.0	21.0	unconscious	0
272.85	0.85	1.0302798748016355	0.3302968442440033	0.0	2.0	turtle	'nV_V'	turtle_15.jpg	3.0	1.0	Animals	Living_Things	272.85	21.0	unconscious	0
273.7	0.85	1.0302798748016355	0.3302968442440033	0.0	2.0	turtle	'nV_V'	turtle_15.jpg	3.0	1.0	Animals	Living_Things	273.7	21.0	unconscious	0
274.55	0.85	0.6603068113327026	0.480282336473465	0.0	2.0	penguin	'nV_V'	penguin_3.jpg	6.0	1.0	Birds	Living_Things	274.55	22.0	glimpse	0
275.4	0.85	0.6603068113327026	0.480282336473465	0.0	2.0	penguin	'nV_V'	penguin_3.jpg	6.0	1.0	Birds	Living_Things	275.4	22.0	glimpse	0
276.25	0.85	0.6603068113327026	0.480282336473465	0.0	2.0	penguin	'nV_V'	penguin_3.jpg	6.0	1.0	Birds	Living_Things	276.25	22.0	glimpse	0
277.1	0.85	0.6603068113327026	0.480282336473465	0.0	2.0	penguin	'nV_V'	penguin_3.jpg	6.0	1.0	Birds	Living_Things	277.1	22.0	glimpse	0
277.95	0.85	0.6603068113327026	0.480282336473465	0.0	2.0	penguin	'nV_V'	penguin_3.jpg	6.0	1.0	Birds	Living_Things	277.95	22.0	glimpse	0
278.8	0.85	0.6603068113327026	0.480282336473465	0.0	2.0	penguin	'nV_V'	penguin_3.jpg	6.0	1.0	Birds	Living_Things	278.8	22.0	glimpse	0
279.65	0.85	0.6603068113327026	0.480282336473465	0.0	2.0	penguin	'nV_V'	penguin_3.jpg	6.0	1.0	Birds	Living_Things	279.65	22.0	glimpse	1
280.5	0.85	0.6603068113327026	0.480282336473465	0.0	2.0	penguin	'nV_V'	penguin_3.jpg	6.0	1.0	Birds	Living_Things	280.5	22.0	glimpse	1
281.35	0.85	0.6603068113327026	0.480282336473465	0.0	2.0	penguin	'nV_V'	penguin_3.jpg	6.0	1.0	Birds	Living_Things	281.35	22.0	glimpse	1
282.2	0.85	0.6603068113327026	0.480282336473465	0.0	2.0	penguin	'nV_V'	penguin_3.jpg	6.0	1.0	Birds	Living_Things	282.2	22.0	glimpse	1
283.05	0.85	0.6603068113327026	0.480282336473465	0.0	2.0	penguin	'nV_V'	penguin_3.jpg	6.0	1.0	Birds	Living_Things	283.05	22.0	glimpse	0
283.9	0.85	0.6603068113327026	0.480282336473465	0.0	2.0	penguin	'nV_V'	penguin_3.jpg	6.0	1.0	Birds	Living_Things	283.9	22.0	glimpse	0
284.75	0.85	0.6603068113327026	0.480282336473465	0.0	2.0	penguin	'nV_V'	penguin_3.jpg	6.0	1.0	Birds	Living_Things	284.75	22.0	glimpse	0
285.6	0.85	0.6603068113327026	0.480282336473465	0.0	2.0	penguin	'nV_V'	penguin_3.jpg	6.0	1.0	Birds	Living_Things	285.6	22.0	glimpse	0
286.45	0.85	0.6603068113327026	0.480282336473465	0.0	2.0	penguin	'nV_V'	penguin_3.jpg	6.0	1.0	Birds	Living_Things	286.45	22.0	glimpse	0
287.3	0.85	0.6603068113327026	0.480282336473465	0.0	2.0	penguin	'nV_V'	penguin_3.jpg	6.0	1.0	Birds	Living_Things	287.3	22.0	glimpse	0
288.15	0.85	0.7602829933166504	0.4902837276458739	1.0	2.0	seagull	'nV_V'	seagull_5.jpg	5.0	2.0	Birds	Living_Things	288.15	23.0	conscious	0
289.0	0.85	0.7602829933166504	0.4902837276458739	1.0	2.0	seagull	'nV_V'	seagull_5.jpg	5.0	2.0	Birds	Living_Things	289.0	23.0	conscious	0
289.85	0.85	0.7602829933166504	0.4902837276458739	1.0	2.0	seagull	'nV_V'	seagull_5.jpg	5.0	2.0	Birds	Living_Things	289.85	23.0	conscious	0
290.7	0.85	0.7602829933166504	0.4902837276458739	1.0	2.0	seagull	'nV_V'	seagull_5.jpg	5.0	2.0	Birds	Living_Things	290.7	23.0	conscious	0
291.55	0.85	0.7602829933166504	0.4902837276458739	1.0	2.0	seagull	'nV_V'	seagull_5.jpg	5.0	2.0	Birds	Living_Things	291.55	23.0	conscious	0
292.4	0.85	0.7602829933166504	0.4902837276458739	1.0	2.0	seagull	'nV_V'	seagull_5.jpg	5.0	2.0	Birds	Living_Things	292.4	23.0	conscious	0
293.25	0.85	0.7602829933166504	0.4902837276458739	1.0	2.0	seagull	'nV_V'	seagull_5.jpg	5.0	2.0	Birds	Living_Things	293.25	23.0	conscious	1
294.1	0.85	0.7602829933166504	0.4902837276458739	1.0	2.0	seagull	'nV_V'	seagull_5.jpg	5.0	2.0	Birds	Living_Things	294.1	23.0	conscious	1
294.95	0.85	0.7602829933166504	0.4902837276458739	1.0	2.0	seagull	'nV_V'	seagull_5.jpg	5.0	2.0	Birds	Living_Things	294.95	23.0	conscious	1
295.8	0.85	0.7602829933166504	0.4902837276458739	1.0	2.0	seagull	'nV_V'	seagull_5.jpg	5.0	2.0	Birds	Living_Things	295.8	23.0	conscious	0
296.65	0.85	0.7602829933166504	0.4902837276458739	1.0	2.0	seagull	'nV_V'	seagull_5.jpg	5.0	2.0	Birds	Living_Things	296.65	23.0	conscious	0
297.5	0.85	0.7602829933166504	0.4902837276458739	1.0	2.0	seagull	'nV_V'	seagull_5.jpg	5.0	2.0	Birds	Living_Things	297.5	23.0	conscious	0
298.35	0.85	0.7602829933166504	0.4902837276458739	1.0	2.0	seagull	'nV_V'	seagull_5.jpg	5.0	2.0	Birds	Living_Things	298.35	23.0	conscious	0
299.2	0.85	0.7602829933166504	0.4902837276458739	1.0	2.0	seagull	'nV_V'	seagull_5.jpg	5.0	2.0	Birds	Living_Things	299.2	23.0	conscious	0
300.05	0.85	1.340083360671997	n/a	0.0	2.0	bed	'V_nV'	bed_10.jpg	2.0	1.0	Furniture	Nonliving_Things	300.05	24.0	missing data	0
300.9	0.85	1.340083360671997	n/a	0.0	2.0	bed	'V_nV'	bed_10.jpg	2.0	1.0	Furniture	Nonliving_Things	300.9	24.0	missing data	0
301.75	0.85	1.340083360671997	n/a	0.0	2.0	bed	'V_nV'	bed_10.jpg	2.0	1.0	Furniture	Nonliving_Things	301.75	24.0	missing data	0
302.6	0.85	1.340083360671997	n/a	0.0	2.0	bed	'V_nV'	bed_10.jpg	2.0	1.0	Furniture	Nonliving_Things	302.6	24.0	missing data	0
303.45	0.85	1.340083360671997	n/a	0.0	2.0	bed	'V_nV'	bed_10.jpg	2.0	1.0	Furniture	Nonliving_Things	303.45	24.0	missing data	0
304.3	0.85	1.340083360671997	n/a	0.0	2.0	bed	'V_nV'	bed_10.jpg	2.0	1.0	Furniture	Nonliving_Things	304.3	24.0	missing data	0
305.15	0.85	1.340083360671997	n/a	0.0	2.0	bed	'V_nV'	bed_10.jpg	2.0	1.0	Furniture	Nonliving_Things	305.15	24.0	missing data	0
306.0	0.85	1.340083360671997	n/a	0.0	2.0	bed	'V_nV'	bed_10.jpg	2.0	1.0	Furniture	Nonliving_Things	306.0	24.0	missing data	1
306.85	0.85	1.340083360671997	n/a	0.0	2.0	bed	'V_nV'	bed_10.jpg	2.0	1.0	Furniture	Nonliving_Things	306.85	24.0	missing data	1
307.7	0.85	1.340083360671997	n/a	0.0	2.0	bed	'V_nV'	bed_10.jpg	2.0	1.0	Furniture	Nonliving_Things	307.7	24.0	missing data	1
308.55	0.85	1.340083360671997	n/a	0.0	2.0	bed	'V_nV'	bed_10.jpg	2.0	1.0	Furniture	Nonliving_Things	308.55	24.0	missing data	0
309.4	0.85	1.340083360671997	n/a	0.0	2.0	bed	'V_nV'	bed_10.jpg	2.0	1.0	Furniture	Nonliving_Things	309.4	24.0	missing data	0
310.25	0.85	1.340083360671997	n/a	0.0	2.0	bed	'V_nV'	bed_10.jpg	2.0	1.0	Furniture	Nonliving_Things	310.25	24.0	missing data	0
311.1	0.85	1.340083360671997	n/a	0.0	2.0	bed	'V_nV'	bed_10.jpg	2.0	1.0	Furniture	Nonliving_Things	311.1	24.0	missing data	0
311.95	0.85	0.290280669927597	0.1700823307037353	0.0	1.0	owl	'V_nV'	owl_26.jpg	2.0	2.0	Birds	Living_Things	311.95	25.0	unconscious	0
312.8	0.85	0.290280669927597	0.1700823307037353	0.0	1.0	owl	'V_nV'	owl_26.jpg	2.0	2.0	Birds	Living_Things	312.8	25.0	unconscious	0
313.65	0.85	0.290280669927597	0.1700823307037353	0.0	1.0	owl	'V_nV'	owl_26.jpg	2.0	2.0	Birds	Living_Things	313.65	25.0	unconscious	0
314.5	0.85	0.290280669927597	0.1700823307037353	0.0	1.0	owl	'V_nV'	owl_26.jpg	2.0	2.0	Birds	Living_Things	314.5	25.0	unconscious	0
315.35	0.85	0.290280669927597	0.1700823307037353	0.0	1.0	owl	'V_nV'	owl_26.jpg	2.0	2.0	Birds	Living_Things	315.35	25.0	unconscious	0
316.2	0.85	0.290280669927597	0.1700823307037353	0.0	1.0	owl	'V_nV'	owl_26.jpg	2.0	2.0	Birds	Living_Things	316.2	25.0	unconscious	0
317.05	0.85	0.290280669927597	0.1700823307037353	0.0	1.0	owl	'V_nV'	owl_26.jpg	2.0	2.0	Birds	Living_Things	317.05	25.0	unconscious	0
317.9	0.85	0.290280669927597	0.1700823307037353	0.0	1.0	owl	'V_nV'	owl_26.jpg	2.0	2.0	Birds	Living_Things	317.9	25.0	unconscious	1
318.75	0.85	0.290280669927597	0.1700823307037353	0.0	1.0	owl	'V_nV'	owl_26.jpg	2.0	2.0	Birds	Living_Things	318.75	25.0	unconscious	1
319.6	0.85	0.290280669927597	0.1700823307037353	0.0	1.0	owl	'V_nV'	owl_26.jpg	2.0	2.0	Birds	Living_Things	319.6	25.0	unconscious	1
320.45	0.85	0.290280669927597	0.1700823307037353	0.0	1.0	owl	'V_nV'	owl_26.jpg	2.0	2.0	Birds	Living_Things	320.45	25.0	unconscious	0
321.3	0.85	0.290280669927597	0.1700823307037353	0.0	1.0	owl	'V_nV'	owl_26.jpg	2.0	2.0	Birds	Living_Things	321.3	25.0	unconscious	0
322.15	0.85	0.290280669927597	0.1700823307037353	0.0	1.0	owl	'V_nV'	owl_26.jpg	2.0	2.0	Birds	Living_Things	322.15	25.0	unconscious	0
323.0	0.85	0.290280669927597	0.1700823307037353	0.0	1.0	owl	'V_nV'	owl_26.jpg	2.0	2.0	Birds	Living_Things	323.0	25.0	unconscious	0
323.85	0.85	0.290280669927597	0.1700823307037353	0.0	1.0	owl	'V_nV'	owl_26.jpg	2.0	2.0	Birds	Living_Things	323.85	25.0	unconscious	0
324.7	0.85	1.380149483680725	0.5502842664718628	1.0	1.0	pelican	'V_nV'	pelican_7.jpg	4.0	1.0	Birds	Living_Things	324.7	26.0	unconscious	0
325.55	0.85	1.380149483680725	0.5502842664718628	1.0	1.0	pelican	'V_nV'	pelican_7.jpg	4.0	1.0	Birds	Living_Things	325.55	26.0	unconscious	0
326.4	0.85	1.380149483680725	0.5502842664718628	1.0	1.0	pelican	'V_nV'	pelican_7.jpg	4.0	1.0	Birds	Living_Things	326.4	26.0	unconscious	0
327.25	0.85	1.380149483680725	0.5502842664718628	1.0	1.0	pelican	'V_nV'	pelican_7.jpg	4.0	1.0	Birds	Living_Things	327.25	26.0	unconscious	0
328.1	0.85	1.380149483680725	0.5502842664718628	1.0	1.0	pelican	'V_nV'	pelican_7.jpg	4.0	1.0	Birds	Living_Things	328.1	26.0	unconscious	0
328.95	0.85	1.380149483680725	0.5502842664718628	1.0	1.0	pelican	'V_nV'	pelican_7.jpg	4.0	1.0	Birds	Living_Things	328.95	26.0	unconscious	0
329.8	0.85	1.380149483680725	0.5502842664718628	1.0	1.0	pelican	'V_nV'	pelican_7.jpg	4.0	1.0	Birds	Living_Things	329.8	26.0	unconscious	1
330.65	0.85	1.380149483680725	0.5502842664718628	1.0	1.0	pelican	'V_nV'	pelican_7.jpg	4.0	1.0	Birds	Living_Things	330.65	26.0	unconscious	1
331.5	0.85	1.380149483680725	0.5502842664718628	1.0	1.0	pelican	'V_nV'	pelican_7.jpg	4.0	1.0	Birds	Living_Things	331.5	26.0	unconscious	1
332.35	0.85	1.380149483680725	0.5502842664718628	1.0	1.0	pelican	'V_nV'	pelican_7.jpg	4.0	1.0	Birds	Living_Things	332.35	26.0	unconscious	1
333.2	0.85	1.380149483680725	0.5502842664718628	1.0	1.0	pelican	'V_nV'	pelican_7.jpg	4.0	1.0	Birds	Living_Things	333.2	26.0	unconscious	0
334.05	0.85	1.380149483680725	0.5502842664718628	1.0	1.0	pelican	'V_nV'	pelican_7.jpg	4.0	1.0	Birds	Living_Things	334.05	26.0	unconscious	0
334.9	0.85	1.380149483680725	0.5502842664718628	1.0	1.0	pelican	'V_nV'	pelican_7.jpg	4.0	1.0	Birds	Living_Things	334.9	26.0	unconscious	0
335.75	0.85	1.380149483680725	0.5502842664718628	1.0	1.0	pelican	'V_nV'	pelican_7.jpg	4.0	1.0	Birds	Living_Things	335.75	26.0	unconscious	0
336.6	0.85	1.380149483680725	0.5502842664718628	1.0	1.0	pelican	'V_nV'	pelican_7.jpg	4.0	1.0	Birds	Living_Things	336.6	26.0	unconscious	0
337.45	0.85	0.5302846431732178	0.0500848852097988	1.0	1.0	boat	'nV_V'	boat_21.jpg	7.0	1.0	Vehicles	Nonliving_Things	337.45	27.0	glimpse	0
338.3	0.85	0.5302846431732178	0.0500848852097988	1.0	1.0	boat	'nV_V'	boat_21.jpg	7.0	1.0	Vehicles	Nonliving_Things	338.3	27.0	glimpse	0
339.15	0.85	0.5302846431732178	0.0500848852097988	1.0	1.0	boat	'nV_V'	boat_21.jpg	7.0	1.0	Vehicles	Nonliving_Things	339.15	27.0	glimpse	0
340.0	0.85	0.5302846431732178	0.0500848852097988	1.0	1.0	boat	'nV_V'	boat_21.jpg	7.0	1.0	Vehicles	Nonliving_Things	340.0	27.0	glimpse	0
340.85	0.85	0.5302846431732178	0.0500848852097988	1.0	1.0	boat	'nV_V'	boat_21.jpg	7.0	1.0	Vehicles	Nonliving_Things	340.85	27.0	glimpse	0
341.7	0.85	0.5302846431732178	0.0500848852097988	1.0	1.0	boat	'nV_V'	boat_21.jpg	7.0	1.0	Vehicles	Nonliving_Things	341.7	27.0	glimpse	0
342.55	0.85	0.5302846431732178	0.0500848852097988	1.0	1.0	boat	'nV_V'	boat_21.jpg	7.0	1.0	Vehicles	Nonliving_Things	342.55	27.0	glimpse	0
343.4	0.85	0.5302846431732178	0.0500848852097988	1.0	1.0	boat	'nV_V'	boat_21.jpg	7.0	1.0	Vehicles	Nonliving_Things	343.4	27.0	glimpse	1
344.25	0.85	0.5302846431732178	0.0500848852097988	1.0	1.0	boat	'nV_V'	boat_21.jpg	7.0	1.0	Vehicles	Nonliving_Things	344.25	27.0	glimpse	1
345.1	0.85	0.5302846431732178	0.0500848852097988	1.0	1.0	boat	'nV_V'	boat_21.jpg	7.0	1.0	Vehicles	Nonliving_Things	345.1	27.0	glimpse	1
345.95	0.85	0.5302846431732178	0.0500848852097988	1.0	1.0	boat	'nV_V'	boat_21.jpg	7.0	1.0	Vehicles	Nonliving_Things	345.95	27.0	glimpse	0
346.8	0.85	0.5302846431732178	0.0500848852097988	1.0	1.0	boat	'nV_V'	boat_21.jpg	7.0	1.0	Vehicles	Nonliving_Things	346.8	27.0	glimpse	0
347.65	0.85	0.5302846431732178	0.0500848852097988	1.0	1.0	boat	'nV_V'	boat_21.jpg	7.0	1.0	Vehicles	Nonliving_Things	347.65	27.0	glimpse	0
348.5	0.85	0.5302846431732178	0.0500848852097988	1.0	1.0	boat	'nV_V'	boat_21.jpg	7.0	1.0	Vehicles	Nonliving_Things	348.5	27.0	glimpse	0
349.35	0.85	1.4003660678863523	0.3103539347648621	0.0	1.0	armchair	'nV_V'	armchair_23.jpg	6.0	2.0	Furniture	Nonliving_Things	349.35	28.0	glimpse	0
350.2	0.85	1.4003660678863523	0.3103539347648621	0.0	1.0	armchair	'nV_V'	armchair_23.jpg	6.0	2.0	Furniture	Nonliving_Things	350.2	28.0	glimpse	0
351.05	0.85	1.4003660678863523	0.3103539347648621	0.0	1.0	armchair	'nV_V'	armchair_23.jpg	6.0	2.0	Furniture	Nonliving_Things	351.05	28.0	glimpse	0
351.9	0.85	1.4003660678863523	0.3103539347648621	0.0	1.0	armchair	'nV_V'	armchair_23.jpg	6.0	2.0	Furniture	Nonliving_Things	351.9	28.0	glimpse	0
352.75	0.85	1.4003660678863523	0.3103539347648621	0.0	1.0	armchair	'nV_V'	armchair_23.jpg	6.0	2.0	Furniture	Nonliving_Things	352.75	28.0	glimpse	0
353.6	0.85	1.4003660678863523	0.3103539347648621	0.0	1.0	armchair	'nV_V'	armchair_23.jpg	6.0	2.0	Furniture	Nonliving_Things	353.6	28.0	glimpse	0
354.45	0.85	1.4003660678863523	0.3103539347648621	0.0	1.0	armchair	'nV_V'	armchair_23.jpg	6.0	2.0	Furniture	Nonliving_Things	354.45	28.0	glimpse	0
355.3	0.85	1.4003660678863523	0.3103539347648621	0.0	1.0	armchair	'nV_V'	armchair_23.jpg	6.0	2.0	Furniture	Nonliving_Things	355.3	28.0	glimpse	1
356.15	0.85	1.4003660678863523	0.3103539347648621	0.0	1.0	armchair	'nV_V'	armchair_23.jpg	6.0	2.0	Furniture	Nonliving_Things	356.15	28.0	glimpse	1
357.0	0.85	1.4003660678863523	0.3103539347648621	0.0	1.0	armchair	'nV_V'	armchair_23.jpg	6.0	2.0	Furniture	Nonliving_Things	357.0	28.0	glimpse	1
357.85	0.85	1.4003660678863523	0.3103539347648621	0.0	1.0	armchair	'nV_V'	armchair_23.jpg	6.0	2.0	Furniture	Nonliving_Things	357.85	28.0	glimpse	0
358.7	0.85	1.4003660678863523	0.3103539347648621	0.0	1.0	armchair	'nV_V'	armchair_23.jpg	6.0	2.0	Furniture	Nonliving_Things	358.7	28.0	glimpse	0
359.55	0.85	1.4003660678863523	0.3103539347648621	0.0	1.0	armchair	'nV_V'	armchair_23.jpg	6.0	2.0	Furniture	Nonliving_Things	359.55	28.0	glimpse	0
360.4	0.85	1.4003660678863523	0.3103539347648621	0.0	1.0	armchair	'nV_V'	armchair_23.jpg	6.0	2.0	Furniture	Nonliving_Things	360.4	28.0	glimpse	0
361.25	0.85	1.4003660678863523	0.3103539347648621	0.0	1.0	armchair	'nV_V'	armchair_23.jpg	6.0	2.0	Furniture	Nonliving_Things	361.25	28.0	glimpse	0
362.1	0.85	1.4003660678863523	0.3103539347648621	0.0	1.0	armchair	'nV_V'	armchair_23.jpg	6.0	2.0	Furniture	Nonliving_Things	362.1	28.0	glimpse	0
362.95	0.85	0.8803578615188599	0.3002864122390747	1.0	1.0	raven	'V_nV'	raven_12.jpg	5.0	1.0	Birds	Living_Things	362.95	29.0	conscious	0
363.8	0.85	0.8803578615188599	0.3002864122390747	1.0	1.0	raven	'V_nV'	raven_12.jpg	5.0	1.0	Birds	Living_Things	363.8	29.0	conscious	0
364.65	0.85	0.8803578615188599	0.3002864122390747	1.0	1.0	raven	'V_nV'	raven_12.jpg	5.0	1.0	Birds	Living_Things	364.65	29.0	conscious	0
365.5	0.85	0.8803578615188599	0.3002864122390747	1.0	1.0	raven	'V_nV'	raven_12.jpg	5.0	1.0	Birds	Living_Things	365.5	29.0	conscious	0
366.35	0.85	0.8803578615188599	0.3002864122390747	1.0	1.0	raven	'V_nV'	raven_12.jpg	5.0	1.0	Birds	Living_Things	366.35	29.0	conscious	0
367.2	0.85	0.8803578615188599	0.3002864122390747	1.0	1.0	raven	'V_nV'	raven_12.jpg	5.0	1.0	Birds	Living_Things	367.2	29.0	conscious	0
368.05	0.85	0.8803578615188599	0.3002864122390747	1.0	1.0	raven	'V_nV'	raven_12.jpg	5.0	1.0	Birds	Living_Things	368.05	29.0	conscious	1
368.9	0.85	0.8803578615188599	0.3002864122390747	1.0	1.0	raven	'V_nV'	raven_12.jpg	5.0	1.0	Birds	Living_Things	368.9	29.0	conscious	1
369.75	0.85	0.8803578615188599	0.3002864122390747	1.0	1.0	raven	'V_nV'	raven_12.jpg	5.0	1.0	Birds	Living_Things	369.75	29.0	conscious	1
370.6	0.85	0.8803578615188599	0.3002864122390747	1.0	1.0	raven	'V_nV'	raven_12.jpg	5.0	1.0	Birds	Living_Things	370.6	29.0	conscious	1
371.45	0.85	0.8803578615188599	0.3002864122390747	1.0	1.0	raven	'V_nV'	raven_12.jpg	5.0	1.0	Birds	Living_Things	371.45	29.0	conscious	0
372.3	0.85	0.8803578615188599	0.3002864122390747	1.0	1.0	raven	'V_nV'	raven_12.jpg	5.0	1.0	Birds	Living_Things	372.3	29.0	conscious	0
373.15	0.85	0.8803578615188599	0.3002864122390747	1.0	1.0	raven	'V_nV'	raven_12.jpg	5.0	1.0	Birds	Living_Things	373.15	29.0	conscious	0
374.0	0.85	0.8803578615188599	0.3002864122390747	1.0	1.0	raven	'V_nV'	raven_12.jpg	5.0	1.0	Birds	Living_Things	374.0	29.0	conscious	0
374.85	0.85	n/a	0.4302907288074493	0.0	1.0	shark	'V_nV'	shark_10.jpg	3.0	99.0	Marine_creatures	Living_Things	374.85	30.0	unconscious	0
375.7	0.85	n/a	0.4302907288074493	0.0	1.0	shark	'V_nV'	shark_10.jpg	3.0	99.0	Marine_creatures	Living_Things	375.7	30.0	unconscious	0
376.55	0.85	n/a	0.4302907288074493	0.0	1.0	shark	'V_nV'	shark_10.jpg	3.0	99.0	Marine_creatures	Living_Things	376.55	30.0	unconscious	0
377.4	0.85	n/a	0.4302907288074493	0.0	1.0	shark	'V_nV'	shark_10.jpg	3.0	99.0	Marine_creatures	Living_Things	377.4	30.0	unconscious	0
378.25	0.85	n/a	0.4302907288074493	0.0	1.0	shark	'V_nV'	shark_10.jpg	3.0	99.0	Marine_creatures	Living_Things	378.25	30.0	unconscious	0
379.1	0.85	n/a	0.4302907288074493	0.0	1.0	shark	'V_nV'	shark_10.jpg	3.0	99.0	Marine_creatures	Living_Things	379.1	30.0	unconscious	0
379.95	0.85	n/a	0.4302907288074493	0.0	1.0	shark	'V_nV'	shark_10.jpg	3.0	99.0	Marine_creatures	Living_Things	379.95	30.0	unconscious	0
380.8	0.85	n/a	0.4302907288074493	0.0	1.0	shark	'V_nV'	shark_10.jpg	3.0	99.0	Marine_creatures	Living_Things	380.8	30.0	unconscious	1
381.65	0.85	n/a	0.4302907288074493	0.0	1.0	shark	'V_nV'	shark_10.jpg	3.0	99.0	Marine_creatures	Living_Things	381.65	30.0	unconscious	1
382.5	0.85	n/a	0.4302907288074493	0.0	1.0	shark	'V_nV'	shark_10.jpg	3.0	99.0	Marine_creatures	Living_Things	382.5	30.0	unconscious	1
383.35	0.85	n/a	0.4302907288074493	0.0	1.0	shark	'V_nV'	shark_10.jpg	3.0	99.0	Marine_creatures	Living_Things	383.35	30.0	unconscious	0
384.2	0.85	n/a	0.4302907288074493	0.0	1.0	shark	'V_nV'	shark_10.jpg	3.0	99.0	Marine_creatures	Living_Things	384.2	30.0	unconscious	0
385.05	0.85	n/a	0.4302907288074493	0.0	1.0	shark	'V_nV'	shark_10.jpg	3.0	99.0	Marine_creatures	Living_Things	385.05	30.0	unconscious	0
385.9	0.85	n/a	0.4302907288074493	0.0	1.0	shark	'V_nV'	shark_10.jpg	3.0	99.0	Marine_creatures	Living_Things	385.9	30.0	unconscious	0
386.75	0.85	n/a	0.4302907288074493	0.0	1.0	shark	'V_nV'	shark_10.jpg	3.0	99.0	Marine_creatures	Living_Things	386.75	30.0	unconscious	0
387.6	0.85	n/a	0.4302907288074493	0.0	1.0	shark	'V_nV'	shark_10.jpg	3.0	99.0	Marine_creatures	Living_Things	387.6	30.0	unconscious	0
388.45	0.85	n/a	0.4302907288074493	0.0	1.0	shark	'V_nV'	shark_10.jpg	3.0	99.0	Marine_creatures	Living_Things	388.45	30.0	unconscious	0
389.3	0.85	1.2803373336791992	n/a	1.0	1.0	axe	'nV_V'	axe_21.jpg	6.0	1.0	Tools	Nonliving_Things	389.3	31.0	missing data	0
390.15	0.85	1.2803373336791992	n/a	1.0	1.0	axe	'nV_V'	axe_21.jpg	6.0	1.0	Tools	Nonliving_Things	390.15	31.0	missing data	0
391.0	0.85	1.2803373336791992	n/a	1.0	1.0	axe	'nV_V'	axe_21.jpg	6.0	1.0	Tools	Nonliving_Things	391.0	31.0	missing data	0
391.85	0.85	1.2803373336791992	n/a	1.0	1.0	axe	'nV_V'	axe_21.jpg	6.0	1.0	Tools	Nonliving_Things	391.85	31.0	missing data	0
392.7	0.85	1.2803373336791992	n/a	1.0	1.0	axe	'nV_V'	axe_21.jpg	6.0	1.0	Tools	Nonliving_Things	392.7	31.0	missing data	0
393.55	0.85	1.2803373336791992	n/a	1.0	1.0	axe	'nV_V'	axe_21.jpg	6.0	1.0	Tools	Nonliving_Things	393.55	31.0	missing data	0
394.4	0.85	1.2803373336791992	n/a	1.0	1.0	axe	'nV_V'	axe_21.jpg	6.0	1.0	Tools	Nonliving_Things	394.4	31.0	missing data	1
395.25	0.85	1.2803373336791992	n/a	1.0	1.0	axe	'nV_V'	axe_21.jpg	6.0	1.0	Tools	Nonliving_Things	395.25	31.0	missing data	1
396.1	0.85	1.2803373336791992	n/a	1.0	1.0	axe	'nV_V'	axe_21.jpg	6.0	1.0	Tools	Nonliving_Things	396.1	31.0	missing data	1
396.95	0.85	1.2803373336791992	n/a	1.0	1.0	axe	'nV_V'	axe_21.jpg	6.0	1.0	Tools	Nonliving_Things	396.95	31.0	missing data	1
397.8	0.85	1.2803373336791992	n/a	1.0	1.0	axe	'nV_V'	axe_21.jpg	6.0	1.0	Tools	Nonliving_Things	397.8	31.0	missing data	0
398.65	0.85	1.2803373336791992	n/a	1.0	1.0	axe	'nV_V'	axe_21.jpg	6.0	1.0	Tools	Nonliving_Things	398.65	31.0	missing data	0
399.5	0.85	1.2803373336791992	n/a	1.0	1.0	axe	'nV_V'	axe_21.jpg	6.0	1.0	Tools	Nonliving_Things	399.5	31.0	missing data	0
400.35	0.85	1.2803373336791992	n/a	1.0	1.0	axe	'nV_V'	axe_21.jpg	6.0	1.0	Tools	Nonliving_Things	400.35	31.0	missing data	0
401.2	0.85	1.2803373336791992	n/a	1.0	1.0	axe	'nV_V'	axe_21.jpg	6.0	1.0	Tools	Nonliving_Things	401.2	31.0	missing data	0
402.05	0.85	1.2803373336791992	n/a	1.0	1.0	axe	'nV_V'	axe_21.jpg	6.0	1.0	Tools	Nonliving_Things	402.05	31.0	missing data	0
402.9	0.85	1.0802849531173706	0.2603093087673187	1.0	2.0	Chest-of-drawers	'V_nV'	Chest-of-drawers_1.j	6.0	2.0	Furniture	Nonliving_Things	402.9	32.0	glimpse	0
403.75	0.85	1.0802849531173706	0.2603093087673187	1.0	2.0	Chest-of-drawers	'V_nV'	Chest-of-drawers_1.j	6.0	2.0	Furniture	Nonliving_Things	403.75	32.0	glimpse	0
404.6	0.85	1.0802849531173706	0.2603093087673187	1.0	2.0	Chest-of-drawers	'V_nV'	Chest-of-drawers_1.j	6.0	2.0	Furniture	Nonliving_Things	404.6	32.0	glimpse	0
405.45	0.85	1.0802849531173706	0.2603093087673187	1.0	2.0	Chest-of-drawers	'V_nV'	Chest-of-drawers_1.j	6.0	2.0	Furniture	Nonliving_Things	405.45	32.0	glimpse	0
406.3	0.85	1.0802849531173706	0.2603093087673187	1.0	2.0	Chest-of-drawers	'V_nV'	Chest-of-drawers_1.j	6.0	2.0	Furniture	Nonliving_Things	406.3	32.0	glimpse	0
407.15	0.85	1.0802849531173706	0.2603093087673187	1.0	2.0	Chest-of-drawers	'V_nV'	Chest-of-drawers_1.j	6.0	2.0	Furniture	Nonliving_Things	407.15	32.0	glimpse	0
408.0	0.85	1.0802849531173706	0.2603093087673187	1.0	2.0	Chest-of-drawers	'V_nV'	Chest-of-drawers_1.j	6.0	2.0	Furniture	Nonliving_Things	408.0	32.0	glimpse	0
408.85	0.85	1.0802849531173706	0.2603093087673187	1.0	2.0	Chest-of-drawers	'V_nV'	Chest-of-drawers_1.j	6.0	2.0	Furniture	Nonliving_Things	408.85	32.0	glimpse	1
409.7	0.85	1.0802849531173706	0.2603093087673187	1.0	2.0	Chest-of-drawers	'V_nV'	Chest-of-drawers_1.j	6.0	2.0	Furniture	Nonliving_Things	409.7	32.0	glimpse	1
410.55	0.85	1.0802849531173706	0.2603093087673187	1.0	2.0	Chest-of-drawers	'V_nV'	Chest-of-drawers_1.j	6.0	2.0	Furniture	Nonliving_Things	410.55	32.0	glimpse	1
411.4	0.85	1.0802849531173706	0.2603093087673187	1.0	2.0	Chest-of-drawers	'V_nV'	Chest-of-drawers_1.j	6.0	2.0	Furniture	Nonliving_Things	411.4	32.0	glimpse	0
412.25	0.85	1.0802849531173706	0.2603093087673187	1.0	2.0	Chest-of-drawers	'V_nV'	Chest-of-drawers_1.j	6.0	2.0	Furniture	Nonliving_Things	412.25	32.0	glimpse	0
413.1	0.85	1.0802849531173706	0.2603093087673187	1.0	2.0	Chest-of-drawers	'V_nV'	Chest-of-drawers_1.j	6.0	2.0	Furniture	Nonliving_Things	413.1	32.0	glimpse	0
413.95	0.85	1.0802849531173706	0.2603093087673187	1.0	2.0	Chest-of-drawers	'V_nV'	Chest-of-drawers_1.j	6.0	2.0	Furniture	Nonliving_Things	413.95	32.0	glimpse	0
414.8	0.85	1.0802849531173706	0.2603093087673187	1.0	2.0	Chest-of-drawers	'V_nV'	Chest-of-drawers_1.j	6.0	2.0	Furniture	Nonliving_Things	414.8	32.0	glimpse	0
415.65	0.85	1.0802849531173706	0.2603093087673187	1.0	2.0	Chest-of-drawers	'V_nV'	Chest-of-drawers_1.j	6.0	2.0	Furniture	Nonliving_Things	415.65	32.0	glimpse	0
416.5	0.85	1.0802849531173706	0.2603093087673187	1.0	2.0	Chest-of-drawers	'V_nV'	Chest-of-drawers_1.j	6.0	2.0	Furniture	Nonliving_Things	416.5	32.0	glimpse	0
417.35	0.85	1.0802849531173706	0.2603093087673187	1.0	2.0	Chest-of-drawers	'V_nV'	Chest-of-drawers_1.j	6.0	2.0	Furniture	Nonliving_Things	417.35	32.0	glimpse	0
418.2	0.85	1.0802849531173706	0.2603093087673187	1.0	2.0	Chest-of-drawers	'V_nV'	Chest-of-drawers_1.j	6.0	2.0	Furniture	Nonliving_Things	418.2	32.0	glimpse	0
419.05	0.85	1.0802849531173706	0.2603093087673187	1.0	2.0	Chest-of-drawers	'V_nV'	Chest-of-drawers_1.j	6.0	2.0	Furniture	Nonliving_Things	419.05	32.0	glimpse	0
419.9	0.85	1.0802849531173706	0.2603093087673187	1.0	2.0	Chest-of-drawers	'V_nV'	Chest-of-drawers_1.j	6.0	2.0	Furniture	Nonliving_Things	419.9	32.0	glimpse	0
420.75	0.85	1.0802849531173706	0.2603093087673187	1.0	2.0	Chest-of-drawers	'V_nV'	Chest-of-drawers_1.j	6.0	2.0	Furniture	Nonliving_Things	420.75	32.0	glimpse	0
421.6	0.85	1.0802849531173706	0.2603093087673187	1.0	2.0	Chest-of-drawers	'V_nV'	Chest-of-drawers_1.j	6.0	2.0	Furniture	Nonliving_Things	421.6	32.0	glimpse	0
422.45	0.85	1.0802849531173706	0.2603093087673187	1.0	2.0	Chest-of-drawers	'V_nV'	Chest-of-drawers_1.j	6.0	2.0	Furniture	Nonliving_Things	422.45	32.0	glimpse	0
423.3	0.85	1.0802849531173706	0.2603093087673187	1.0	2.0	Chest-of-drawers	'V_nV'	Chest-of-drawers_1.j	6.0	2.0	Furniture	Nonliving_Things	423.3	32.0	glimpse	0
424.15	0.85	1.0802849531173706	0.2603093087673187	1.0	2.0	Chest-of-drawers	'V_nV'	Chest-of-drawers_1.j	6.0	2.0	Furniture	Nonliving_Things	424.15	32.0	glimpse	0
425.0	0.85	1.0802849531173706	0.2603093087673187	1.0	2.0	Chest-of-drawers	'V_nV'	Chest-of-drawers_1.j	6.0	2.0	Furniture	Nonliving_Things	425.0	32.0	glimpse	0
425.85	0.85	1.0802849531173706	0.2603093087673187	1.0	2.0	Chest-of-drawers	'V_nV'	Chest-of-drawers_1.j	6.0	2.0	Furniture	Nonliving_Things	425.85	32.0	glimpse	0
426.7	0.85	1.0802849531173706	0.2603093087673187	1.0	2.0	Chest-of-drawers	'V_nV'	Chest-of-drawers_1.j	6.0	2.0	Furniture	Nonliving_Things	426.7	32.0	glimpse	0
427.55	0.85	1.0802849531173706	0.2603093087673187	1.0	2.0	Chest-of-drawers	'V_nV'	Chest-of-drawers_1.j	6.0	2.0	Furniture	Nonliving_Things	427.55	32.0	glimpse	0
428.4	0.85	1.0802849531173706	0.2603093087673187	1.0	2.0	Chest-of-drawers	'V_nV'	Chest-of-drawers_1.j	6.0	2.0	Furniture	Nonliving_Things	428.4	32.0	glimpse	0
429.25	0.85	1.0802849531173706	0.2603093087673187	1.0	2.0	Chest-of-drawers	'V_nV'	Chest-of-drawers_1.j	6.0	2.0	Furniture	Nonliving_Things	429.25	32.0	glimpse	0
430.1	0.85	1.0802849531173706	0.2603093087673187	1.0	2.0	Chest-of-drawers	'V_nV'	Chest-of-drawers_1.j	6.0	2.0	Furniture	Nonliving_Things	430.1	32.0	glimpse	0
430.95	0.85	1.0802849531173706	0.2603093087673187	1.0	2.0	Chest-of-drawers	'V_nV'	Chest-of-drawers_1.j	6.0	2.0	Furniture	Nonliving_Things	430.95	32.0	glimpse	0
